#time,accel_x,accel_y,accel_z
155.437318,1628.453072,8882.471304,-75843.454302
155.439941,-444.123565,7846.182985,-75843.454302
155.442565,-2220.617826,8586.388927,-75843.454302
155.445188,-1628.453072,7698.141797,-76303.111601
155.447812,444.123565,8142.265362,-76762.768900
155.450435,740.205942,8290.306550,-76303.111601
155.453059,-888.247130,6513.812290,-76149.892501
155.455683,-2220.617826,8290.306550,-76303.111601
155.458306,-740.205942,8882.471304,-76303.111601
155.460930,592.164754,6661.853478,-76456.330700
155.463553,-1036.288319,7846.182985,-76456.330700
155.466177,740.205942,9030.512492,-76609.549800
155.468800,1924.535449,8290.306550,-77222.426198
155.471421,1924.535449,8142.265362,-75383.797003
155.474041,10214.842000,8734.430116,-76303.111601
155.476662,-148.041188,8734.430116,-76456.330700
155.479282,2960.823768,7846.182985,-75383.797003
155.481902,8142.265362,7698.141797,-76762.768900
155.484523,9918.759623,7254.018232,-76149.892501
155.487143,-5033.400406,8290.306550,-75383.797003
155.489763,5625.565159,9030.512492,-77222.426198
155.492384,2960.823768,6661.853478,-77682.083497
155.495004,-5033.400406,9030.512492,-75537.016103
155.497625,6809.894666,7254.018232,-75996.673402
155.500245,22058.137072,9326.594869,-77222.426198
155.502865,-10807.006753,9770.718434,-74924.139704
155.505486,6661.853478,7254.018232,-76149.892501
155.508106,2960.823768,11547.212695,-77835.302597
155.510727,-46336.891969,9326.594869,-72319.415011
155.513347,21465.972318,3256.906145,-78907.836294
155.515967,-10955.047942,8290.306550,-76609.549800
155.518588,-14359.995275,10955.047942,-73851.606007
155.521208,2220.617826,6809.894666,-76303.111601
155.523829,4589.276840,8290.306550,-76456.330700
155.526449,-5921.647536,7846.182985,-77682.083497
155.529069,-10214.842000,7698.141797,-75077.358804
155.531690,-296.082377,7105.977043,-75383.797003
155.534310,-3701.029710,9918.759623,-77222.426198
155.536931,2368.659014,7105.977043,-78754.617194
155.539551,-444.123565,8882.471304,-75996.673402
155.542171,-10066.800811,10510.924376,-73391.948708
155.544792,-5033.400406,6957.935855,-77375.645298
155.547412,-10510.924376,7105.977043,-75996.673402
155.550033,-2220.617826,9178.553681,-76303.111601
155.552653,888.247130,8586.388927,-74617.701505
155.555273,4293.194464,6957.935855,-77988.521696
155.557894,740.205942,8438.347739,-75690.235202
155.560514,-9918.759623,9030.512492,-74924.139704
155.563135,-13767.830521,7254.018232,-76149.892501
155.565755,2220.617826,5181.441594,-77528.864398
155.568375,-2072.576638,9918.759623,-75690.235202
155.570996,-13027.624579,10066.800811,-74770.920605
155.573616,9326.594869,6069.688724,-78294.959896
155.576231,-21465.972318,10066.800811,-73698.386908
155.578847,16432.571912,6069.688724,-77222.426198
155.581462,12731.542202,6069.688724,-77835.302597
155.584077,-40415.244433,14804.118840,-71246.881314
155.586693,-9622.677246,4885.359217,-78448.178995
155.589308,23390.507767,6069.688724,-78754.617194
155.591923,-14952.160028,11399.171507,-74770.920605
155.594539,17320.819043,9474.636058,-71706.538613
155.597154,19245.354492,6069.688724,-79980.369991
155.599769,20725.766376,10362.883188,-76915.987999
155.602385,-31236.690752,8882.471304,-72779.072310
155.605000,10066.800811,8586.388927,-76609.549800
155.607615,32717.102636,3108.864956,-79827.150892
155.610231,-27831.743419,10955.047942,-71400.100414
155.612846,-4737.318029,12435.459826,-74311.263306
155.615461,18949.272115,3701.029710,-79673.931792
155.618077,-24426.796086,10658.965565,-72779.072310
155.620692,6957.935855,9326.594869,-75996.673402
155.623307,18653.189738,4441.235652,-77069.207099
155.625923,-3108.864956,9030.512492,-76762.768900
155.628538,-11843.295072,9622.677246,-75383.797003
155.631153,10362.883188,5921.647536,-78141.740796
155.633769,-2960.823768,9030.512492,-76303.111601
155.636384,1924.535449,7994.224174,-74770.920605
155.638999,7105.977043,5921.647536,-78141.740796
155.641614,-2220.617826,9770.718434,-75537.016103
155.644230,9918.759623,7698.141797,-76149.892501
155.646845,5181.441594,5921.647536,-77069.207099
155.649460,-3256.906145,9178.553681,-75537.016103
155.652076,2220.617826,7846.182985,-77528.864398
155.654691,1776.494261,7105.977043,-76149.892501
155.657306,2516.700203,7698.141797,-77222.426198
155.659922,2072.576638,8438.347739,-75230.577904
155.662537,2960.823768,6661.853478,-77528.864398
155.665152,11103.089130,8586.388927,-75996.673402
155.667768,-2664.741391,7254.018232,-75537.016103
155.670383,11547.212695,9326.594869,-78294.959896
155.672998,3256.906145,6513.812290,-77988.521696
155.675614,-11251.130318,9474.636058,-72779.072310
155.678229,18061.024985,9622.677246,-77528.864398
155.680836,-3404.947333,6661.853478,-75537.016103
155.683443,-3997.112087,4145.153275,-76303.111601
155.686050,47965.345042,13175.665768,-78141.740796
155.688657,-36862.255912,9770.718434,-72166.195912
155.691264,3997.112087,8438.347739,-76762.768900
155.693870,21465.972318,6217.729913,-78754.617194
155.696477,-49001.633360,10214.842000,-76762.768900
155.699084,-38046.585419,9622.677246,-72319.415011
155.701691,30644.525999,3404.947333,-80440.027290
155.704298,7846.182985,10066.800811,-77069.207099
155.706905,-21317.931130,13175.665768,-72625.853210
155.709512,888.247130,1924.535449,-76762.768900
155.712119,24278.754898,6217.729913,-79980.369991
155.714726,-37750.503042,16432.571912,-72779.072310
155.717333,3108.864956,5329.482782,-75383.797003
155.719940,18801.230927,6957.935855,-78294.959896
155.722547,-15692.365970,9622.677246,-77528.864398
155.725153,-17764.942608,7994.224174,-74924.139704
155.727760,5773.606348,6365.771101,-77682.083497
155.730367,6513.812290,6809.894666,-77222.426198
155.732974,-8734.430116,9030.512492,-75996.673402
155.735581,-7402.059420,9918.759623,-75383.797003
155.738188,296.082377,6809.894666,-76915.987999
155.740795,-1036.288319,6365.771101,-76303.111601
155.743402,-3108.864956,8586.388927,-74770.920605
155.746009,-2516.700203,8290.306550,-75843.454302
155.748616,-10658.965565,7698.141797,-75537.016103
155.751223,-4293.194464,7846.182985,-77528.864398
155.753830,2368.659014,6957.935855,-75843.454302
155.756436,-3997.112087,7698.141797,-76149.892501
155.759043,-2664.741391,9030.512492,-75843.454302
155.761650,-11251.130318,7550.100608,-77682.083497
155.764257,-3701.029710,7550.100608,-75843.454302
155.766864,3997.112087,9030.512492,-75996.673402
155.769471,-6069.688724,7994.224174,-76149.892501
155.772078,-14063.912898,7698.141797,-76762.768900
155.774685,-21762.054695,13471.748144,-72472.634111
155.777292,18061.024985,5921.647536,-77682.083497
155.779899,7402.059420,5773.606348,-77988.521696
155.782506,-30644.525999,14804.118840,-71400.100414
155.785106,-8142.265362,5181.441594,-78907.836294
155.787707,20429.683999,3256.906145,-80286.808190
155.790308,-20281.642811,11843.295072,-73698.386908
155.792909,-14211.954086,9770.718434,-71246.881314
155.795510,21910.095883,3552.988522,-80746.465489
155.798111,20873.807564,10362.883188,-77222.426198
155.800711,-5477.523971,12139.377449,-74464.482406
155.803312,-26795.455100,11843.295072,-72625.853210
155.805913,39675.038491,-1480.411884,-80593.246390
155.808514,1924.535449,10955.047942,-76915.987999
155.811115,-31236.690752,12731.542202,-70940.443115
155.813715,28719.990550,3108.864956,-79673.931792
155.816316,-7846.182985,10510.924376,-74924.139704
155.818917,6957.935855,9178.553681,-75690.235202
155.821518,13323.706956,6069.688724,-76149.892501
155.824119,2220.617826,7698.141797,-76456.330700
155.826720,-4589.276840,10807.006753,-77222.426198
155.829320,-4589.276840,6957.935855,-75383.797003
155.831921,3849.070898,7105.977043,-76149.892501
155.834522,296.082377,9770.718434,-75077.358804
155.837123,7698.141797,6513.812290,-77988.521696
155.839724,-2960.823768,7550.100608,-75230.577904
155.842325,15100.201217,9030.512492,-76456.330700
155.844925,5329.482782,6957.935855,-76762.768900
155.847526,-11991.336260,8438.347739,-75843.454302
155.850127,-888.247130,7698.141797,-76149.892501
155.852728,8734.430116,7254.018232,-76456.330700
155.855329,-1480.411884,8586.388927,-75230.577904
155.857929,15840.407159,8438.347739,-75843.454302
155.860530,15840.407159,6513.812290,-77069.207099
155.863131,-6217.729913,10214.842000,-75843.454302
155.865732,-20725.766376,8290.306550,-75537.016103
155.868333,16432.571912,4589.276840,-78907.836294
155.870934,-14952.160028,8586.388927,-75230.577904
155.873534,11399.171507,7254.018232,-75537.016103
155.876135,42783.903448,5033.400406,-78907.836294
155.878736,-14063.912898,15692.365970,-75996.673402
155.881337,-16580.613101,7402.059420,-74158.044206
155.883938,13767.830521,296.082377,-79827.150892
155.886538,-6809.894666,11103.089130,-74617.701505
155.889135,-40859.367998,5329.482782,-74311.263306
155.891731,40267.203245,7105.977043,-79214.274493
155.894327,-16580.613101,9326.594869,-76609.549800
155.896923,-26203.290347,13323.706956,-73085.510509
155.899519,18949.272115,888.247130,-77222.426198
155.902115,32272.979071,2368.659014,-77835.302597
155.904711,-33013.185013,15988.448347,-72779.072310
155.907308,-30940.608376,7846.182985,-75077.358804
155.909904,31976.896694,-592.164754,-81665.780087
155.912500,-18653.189738,11547.212695,-74464.482406
155.915096,-14508.036463,11103.089130,-73238.729609
155.917692,21910.095883,2072.576638,-80286.808190
155.920288,-16580.613101,11991.336260,-75843.454302
155.922885,-11843.295072,8438.347739,-74617.701505
155.925481,5625.565159,6365.771101,-74924.139704
155.928077,5773.606348,6957.935855,-77835.302597
155.930673,-8142.265362,8882.471304,-75843.454302
155.933269,-6069.688724,8882.471304,-74770.920605
155.935865,2516.700203,6661.853478,-77375.645298
155.938461,4441.235652,7846.182985,-77069.207099
155.941058,-10066.800811,7550.100608,-76762.768900
155.943654,-8882.471304,10510.924376,-75537.016103
155.946250,-4293.194464,7846.182985,-77222.426198
155.948846,-5181.441594,6957.935855,-75230.577904
155.951442,-1924.535449,7994.224174,-76609.549800
155.954038,-4145.153275,8734.430116,-75230.577904
155.956634,7105.977043,6365.771101,-77988.521696
155.959231,-12583.501014,9474.636058,-76456.330700
155.961827,-18209.066173,8882.471304,-74924.139704
155.964423,-2812.782580,5625.565159,-76762.768900
155.967019,19097.313304,5773.606348,-78907.836294
155.969615,-16728.654289,13175.665768,-74004.825107
155.972211,-14359.995275,7254.018232,-74617.701505
155.974808,8290.306550,4441.235652,-80286.808190
155.977404,24426.796086,5921.647536,-78907.836294
155.980000,-21169.889941,11695.253884,-74924.139704
155.982596,8586.388927,6365.771101,-75230.577904
155.985192,24722.878463,5921.647536,-80286.808190
155.987788,-13027.624579,14211.954086,-74004.825107
155.990384,-16580.613101,6661.853478,-72779.072310
155.992974,46781.015534,4293.194464,-79980.369991
155.995564,-13175.665768,11991.336260,-76303.111601
155.998154,-35825.967593,9178.553681,-71093.662214
156.000744,37750.503042,3701.029710,-75537.016103
156.003334,19245.354492,3108.864956,-81206.122788
156.005924,-22946.384202,12435.459826,-72779.072310
156.008514,22058.137072,6513.812290,-76149.892501
156.011104,16284.530724,7105.977043,-77528.864398
156.013694,-2516.700203,9622.677246,-76609.549800
156.016284,-7698.141797,9178.553681,-74158.044206
156.018874,8586.388927,6809.894666,-77682.083497
156.021464,2664.741391,6957.935855,-77682.083497
156.024054,-14211.954086,9326.594869,-73698.386908
156.026644,5477.523971,7846.182985,-74770.920605
156.029234,16580.613101,7698.141797,-78141.740796
156.031824,5625.565159,7846.182985,-76303.111601
156.034414,-888.247130,8142.265362,-75843.454302
156.037004,6957.935855,9326.594869,-75690.235202
156.039594,-5033.400406,8438.347739,-76762.768900
156.042184,-1480.411884,7402.059420,-75383.797003
156.044774,10510.924376,7402.059420,-75690.235202
156.047364,15396.283594,6957.935855,-76762.768900
156.049954,5625.565159,8882.471304,-77222.426198
156.052544,-15692.365970,9030.512492,-76609.549800
156.055134,6365.771101,7698.141797,-75843.454302
156.057724,-7402.059420,8438.347739,-75537.016103
156.060314,7698.141797,3997.112087,-78448.178995
156.062904,36270.091158,9178.553681,-77988.521696
156.065494,-42043.697506,12435.459826,-73238.729609
156.068084,19541.436869,2960.823768,-78907.836294
156.070674,5477.523971,5329.482782,-80133.589091
156.073264,-21317.931130,14211.954086,-71400.100414
156.075853,-5773.606348,2368.659014,-74311.263306
156.078443,44708.438897,7402.059420,-78907.836294
156.081033,-15988.448347,11695.253884,-75383.797003
156.083623,-31236.690752,11251.130318,-72625.853210
156.086213,23094.425390,1628.453072,-80133.589091
156.088803,15396.283594,6957.935855,-77222.426198
156.091393,-50778.127621,11399.171507,-70480.785816
156.093983,16432.571912,3552.988522,-79673.931792
156.096480,7254.018232,5329.482782,-80899.684589
156.098976,-31088.649564,13915.871710,-71246.881314
156.101472,19541.436869,10214.842000,-73698.386908
156.103969,24426.796086,3404.947333,-80440.027290
156.106465,-22798.343014,11991.336260,-74464.482406
156.108962,-11399.171507,7846.182985,-75843.454302
156.111458,7550.100608,5181.441594,-77682.083497
156.113954,-1184.329507,7846.182985,-76609.549800
156.116451,-10066.800811,8882.471304,-75690.235202
156.118947,4145.153275,9474.636058,-76609.549800
156.121444,-6513.812290,7105.977043,-75996.673402
156.123940,0.000000,7698.141797,-75537.016103
156.126436,148.041188,6809.894666,-76762.768900
156.128933,-9622.677246,9770.718434,-76915.987999
156.131429,-16728.654289,7846.182985,-75230.577904
156.133925,6365.771101,5477.523971,-76456.330700
156.136422,296.082377,11547.212695,-74311.263306
156.138918,5181.441594,7402.059420,-77528.864398
156.141415,-9622.677246,5329.482782,-77375.645298
156.143911,-11695.253884,10658.965565,-75996.673402
156.146407,-19541.436869,10658.965565,-72472.634111
156.148904,23242.466579,1480.411884,-79980.369991
156.151400,27387.619854,4589.276840,-79214.274493
156.153897,-35529.885216,16136.489536,-70787.224015
156.156393,-13471.748144,6069.688724,-77222.426198
156.158889,26351.331535,3552.988522,-79367.493593
156.161386,-12139.377449,12583.501014,-75230.577904
156.163882,-1332.370696,7254.018232,-74158.044206
156.166378,28275.866984,4737.318029,-82125.437386
156.168875,-10658.965565,14063.912898,-74311.263306
156.171371,-22798.343014,7254.018232,-72166.195912
156.173868,46929.056723,4885.359217,-79061.055394
156.176364,39230.914926,2812.782580,-80899.684589
156.178860,-35974.008781,14063.912898,-70327.566716
156.181357,-5477.523971,11103.089130,-73391.948708
156.183853,26499.372724,1776.494261,-81359.341888
156.186350,-22502.260637,11103.089130,-75077.358804
156.188846,11103.089130,7846.182985,-75383.797003
156.191342,23686.590144,7254.018232,-77835.302597
156.193839,-444.123565,8586.388927,-77222.426198
156.196356,-6365.771101,9474.636058,-74770.920605
156.198873,-4145.153275,8142.265362,-75537.016103
156.201390,9030.512492,6957.935855,-77222.426198
156.203908,-1036.288319,7994.224174,-75996.673402
156.206425,-9030.512492,9326.594869,-74311.263306
156.208942,8734.430116,8586.388927,-76456.330700
156.211460,18653.189738,7105.977043,-78448.178995
156.213977,7698.141797,6513.812290,-76915.987999
156.216494,-9030.512492,10362.883188,-74464.482406
156.219012,7550.100608,6809.894666,-76915.987999
156.221529,10955.047942,6069.688724,-77988.521696
156.224046,-2664.741391,11547.212695,-74770.920605
156.226564,-10214.842000,6809.894666,-76609.549800
156.229081,11103.089130,6069.688724,-78601.398095
156.231598,2960.823768,7550.100608,-75996.673402
156.234115,8882.471304,11547.212695,-74924.139704
156.236633,-3108.864956,6809.894666,-75843.454302
156.239150,6217.729913,3404.947333,-77988.521696
156.241667,36862.255912,13471.748144,-78294.959896
156.244185,-35529.885216,10807.006753,-70634.004916
156.246702,4441.235652,7105.977043,-77682.083497
156.249219,22502.260637,3256.906145,-79214.274493
156.251737,-15396.283594,12287.418637,-75690.235202
156.254254,-34049.473332,7846.182985,-72166.195912
156.256771,32865.143825,2072.576638,-80593.246390
156.259289,-4441.235652,13027.624579,-76303.111601
156.261806,-26055.249158,11251.130318,-71706.538613
156.264323,31532.773129,740.205942,-77988.521696
156.266841,1184.329507,12139.377449,-77988.521696
156.269358,-50482.045244,12731.542202,-72166.195912
156.271875,18801.230927,3849.070898,-77835.302597
156.274393,25611.125593,3997.112087,-78754.617194
156.276925,-26647.413912,9622.677246,-75077.358804
156.279457,-1036.288319,6217.729913,-75843.454302
156.281990,14211.954086,8438.347739,-77069.207099
156.284522,-16728.654289,10510.924376,-75843.454302
156.287054,-10658.965565,7254.018232,-76149.892501
156.289587,6513.812290,6513.812290,-76915.987999
156.292119,1628.453072,9178.553681,-75843.454302
156.294651,-9326.594869,8142.265362,-76149.892501
156.297184,-7994.224174,6957.935855,-75383.797003
156.299716,4293.194464,8586.388927,-76149.892501
156.302248,-6513.812290,8734.430116,-77222.426198
156.304780,-21169.889941,6365.771101,-77069.207099
156.307313,6809.894666,7994.224174,-75996.673402
156.309845,7402.059420,9622.677246,-76456.330700
156.312377,-9918.759623,7402.059420,-76303.111601
156.314910,-15396.283594,8734.430116,-77222.426198
156.317442,7105.977043,6661.853478,-76762.768900
156.319974,1628.453072,6661.853478,-77069.207099
156.322507,-27979.784608,10214.842000,-75230.577904
156.325039,-6365.771101,9030.512492,-75690.235202
156.327571,8438.347739,5477.523971,-79061.055394
156.330104,10807.006753,11251.130318,-76149.892501
156.332636,-44264.315332,10362.883188,-72319.415011
156.335168,49741.839302,2812.782580,-77988.521696
156.337701,-11103.089130,10362.883188,-76456.330700
156.340233,-22502.260637,10362.883188,-74158.044206
156.342765,44560.397708,888.247130,-80593.246390
156.345298,13619.789333,10066.800811,-77682.083497
156.347830,-38490.708984,15988.448347,-73391.948708
156.350362,-10214.842000,2664.741391,-76149.892501
156.352895,45448.644839,5033.400406,-80286.808190
156.355427,-22650.301825,11103.089130,-74617.701505
156.357959,-8438.347739,8290.306550,-74464.482406
156.360492,34937.720462,5625.565159,-79061.055394
156.363024,-17616.901420,11399.171507,-74311.263306
156.365556,1480.411884,8290.306550,-75230.577904
156.368089,22650.301825,3701.029710,-77835.302597
156.370621,0.000000,7994.224174,-77222.426198
156.373153,-2812.782580,9178.553681,-76609.549800
156.375686,-5181.441594,9326.594869,-75383.797003
156.378231,-3108.864956,9622.677246,-74311.263306
156.380775,2368.659014,7105.977043,-76456.330700
156.383320,13027.624579,6069.688724,-77835.302597
156.385865,9622.677246,9770.718434,-75996.673402
156.388410,-148.041188,9030.512492,-75383.797003
156.390955,15100.201217,7254.018232,-76915.987999
156.393499,-9918.759623,7550.100608,-76149.892501
156.396044,-1480.411884,7105.977043,-77222.426198
156.398589,2220.617826,7402.059420,-76609.549800
156.401134,7254.018232,8882.471304,-76456.330700
156.403679,-1480.411884,7698.141797,-75690.235202
156.406224,13471.748144,6957.935855,-77069.207099
156.408768,24426.796086,10214.842000,-77528.864398
156.411313,-42931.944636,8142.265362,-73698.386908
156.413858,27239.578666,2664.741391,-79214.274493
156.416403,-6809.894666,4737.318029,-77835.302597
156.418948,-14211.954086,14952.160028,-73545.167808
156.421492,-28127.825796,3552.988522,-75690.235202
156.424037,41303.491564,10658.965565,-77682.083497
156.426582,-28423.908173,10214.842000,-75077.358804
156.429127,-21317.931130,8438.347739,-75230.577904
156.431672,24722.878463,2812.782580,-80133.589091
156.434217,-4737.318029,9030.512492,-74464.482406
156.436761,-28571.949361,8438.347739,-71706.538613
156.439306,41007.409187,8142.265362,-80440.027290
156.441851,-28571.949361,10510.924376,-76609.549800
156.444396,-20873.807564,10214.842000,-73238.729609
156.446941,10214.842000,7698.141797,-75690.235202
156.449485,8142.265362,5033.400406,-79214.274493
156.452030,-23982.672521,10658.965565,-74004.825107
156.454575,7402.059420,6661.853478,-76762.768900
156.457120,-592.164754,8438.347739,-77222.426198
156.459665,-10658.965565,8438.347739,-76149.892501
156.462209,-148.041188,7550.100608,-75230.577904
156.464754,-10955.047942,10214.842000,-75996.673402
156.467299,1184.329507,6957.935855,-76762.768900
156.469844,-4441.235652,6513.812290,-76149.892501
156.472389,-9030.512492,8734.430116,-75230.577904
156.474934,-5181.441594,9326.594869,-75690.235202
156.477478,5921.647536,5477.523971,-78601.398095
156.480030,-5329.482782,8586.388927,-75383.797003
156.482582,-16432.571912,10066.800811,-75230.577904
156.485134,15396.283594,3997.112087,-78907.836294
156.487686,-26203.290347,11843.295072,-74004.825107
156.490238,8586.388927,8142.265362,-75843.454302
156.492791,15988.448347,4441.235652,-78601.398095
156.495343,-36714.214723,13175.665768,-71706.538613
156.497895,-30200.402434,11843.295072,-74464.482406
156.500447,32569.061448,2072.576638,-79520.712692
156.502999,-7846.182985,10362.883188,-77069.207099
156.505551,-10362.883188,10362.883188,-73238.729609
156.508103,33457.308578,3404.947333,-80746.465489
156.510655,-2664.741391,13175.665768,-74770.920605
156.513207,-30348.443622,10807.006753,-71706.538613
156.515759,46040.809592,1776.494261,-79520.712692
156.518311,-13915.871710,11843.295072,-77375.645298
156.520863,-42191.738694,15692.365970,-69408.252119
156.523415,4737.318029,9622.677246,-75077.358804
156.525967,31680.814318,296.082377,-81818.999186
156.528519,-31088.649564,14656.077652,-72779.072310
156.531071,14063.912898,6217.729913,-76609.549800
156.533623,25463.084405,6217.729913,-79367.493593
156.536175,-15544.324782,12879.583391,-73391.948708
156.538727,5477.523971,9030.512492,-74770.920605
156.541279,9622.677246,5033.400406,-77682.083497
156.543831,5033.400406,8438.347739,-78294.959896
156.546383,6957.935855,7550.100608,-76149.892501
156.548935,-9326.594869,11399.171507,-72166.195912
156.551487,5477.523971,8586.388927,-75996.673402
156.554039,12731.542202,4145.153275,-79214.274493
156.556591,8142.265362,9474.636058,-74770.920605
156.559143,9178.553681,9326.594869,-75383.797003
156.561695,-444.123565,9030.512492,-77069.207099
156.564247,-17616.901420,7105.977043,-75383.797003
156.566799,-444.123565,7846.182985,-76149.892501
156.569351,14952.160028,6217.729913,-76456.330700
156.571903,8586.388927,11695.253884,-75996.673402
156.574455,-5921.647536,9326.594869,-74924.139704
156.577007,32569.061448,5033.400406,-77835.302597
156.579559,1776.494261,15100.201217,-76456.330700
156.582117,-34345.555709,7698.141797,-72472.634111
156.584674,13027.624579,2072.576638,-78601.398095
156.587232,3108.864956,10362.883188,-75996.673402
156.589789,-47669.262665,6365.771101,-74158.044206
156.592347,42487.821071,4589.276840,-79980.369991
156.594905,-8290.306550,9474.636058,-76762.768900
156.597462,-39378.956114,16728.654289,-72625.853210
156.600020,-13027.624579,5625.565159,-76915.987999
156.602577,39378.956114,2072.576638,-78754.617194
156.605135,-43820.191766,14804.118840,-72472.634111
156.607693,-2812.782580,5625.565159,-77835.302597
156.610250,21317.931130,1924.535449,-80899.684589
156.612808,-27239.578666,15544.324782,-72779.072310
156.615365,-3849.070898,8438.347739,-73391.948708
156.617923,17024.736666,3701.029710,-79827.150892
156.620481,-20429.683999,11399.171507,-74464.482406
156.623038,-9326.594869,8438.347739,-75843.454302
156.625596,1332.370696,5181.441594,-76303.111601
156.628153,-4441.235652,8438.347739,-75383.797003
156.630711,-5181.441594,10807.006753,-74617.701505
156.633268,-12731.542202,7550.100608,-76609.549800
156.635826,1776.494261,7254.018232,-77682.083497
156.638384,-1036.288319,9030.512492,-75843.454302
156.640941,-5033.400406,9622.677246,-76149.892501
156.643499,2516.700203,8142.265362,-77835.302597
156.646056,-6661.853478,7105.977043,-76456.330700
156.648614,-22206.178260,7402.059420,-74924.139704
156.651172,2516.700203,7105.977043,-76915.987999
156.653729,22354.219448,7550.100608,-79061.055394
156.656287,-31828.855506,13175.665768,-74004.825107
156.658844,10362.883188,3701.029710,-77069.207099
156.661402,10658.965565,6957.935855,-79520.712692
156.663959,-31532.773129,14063.912898,-73238.729609
156.666517,-21317.931130,6661.853478,-74464.482406
156.669075,55663.486838,3701.029710,-82125.437386
156.671632,-40859.367998,12583.501014,-70021.128517
156.674190,-26203.290347,13027.624579,-72166.195912
156.676747,52110.498317,1332.370696,-80133.589091
156.679305,13323.706956,8290.306550,-78754.617194
156.681863,-51666.374752,13323.706956,-70634.004916
156.684425,49593.798114,-2664.741391,-80593.246390
156.686988,-148.041188,11695.253884,-75843.454302
156.689550,-25611.125593,13619.789333,-72472.634111
156.692113,25018.960840,1924.535449,-79673.931792
156.694676,7402.059420,8882.471304,-77069.207099
156.697238,-30496.484810,11251.130318,-71706.538613
156.699801,8290.306550,4885.359217,-77222.426198
156.702363,24130.713709,3108.864956,-79061.055394
156.704926,-1628.453072,10362.883188,-74770.920605
156.707488,-6513.812290,9178.553681,-75383.797003
156.710051,-2516.700203,8142.265362,-77222.426198
156.712614,6513.812290,5921.647536,-76915.987999
156.715176,9178.553681,9178.553681,-75383.797003
156.717739,-5773.606348,9030.512492,-74924.139704
156.720301,24130.713709,7698.141797,-78141.740796
156.722864,2664.741391,9474.636058,-76149.892501
156.725427,-22058.137072,8438.347739,-74617.701505
156.727989,-4441.235652,4737.318029,-77835.302597
156.730552,12139.377449,7254.018232,-76915.987999
156.733114,-10955.047942,8586.388927,-73851.606007
156.735677,21021.848753,6957.935855,-77682.083497
156.738240,14804.118840,9474.636058,-78754.617194
156.740802,-19393.395680,4885.359217,-73851.606007
156.743365,42043.697506,10807.006753,-78448.178995
156.745927,-29164.114115,7846.182985,-74004.825107
156.748490,-14656.077652,13619.789333,-73545.167808
156.751052,14359.995275,5033.400406,-76762.768900
156.753615,-888.247130,11399.171507,-76915.987999
156.756178,-35677.926404,8438.347739,-72932.291410
156.758740,28275.866984,3701.029710,-79980.369991
156.761303,-5329.482782,11251.130318,-77222.426198
156.763865,-29904.320057,11103.089130,-72319.415011
156.766428,35529.885216,2664.741391,-78907.836294
156.768991,-13027.624579,10510.924376,-77222.426198
156.771553,-39230.914926,12731.542202,-73238.729609
156.774116,-3552.988522,6661.853478,-77222.426198
156.776678,14211.954086,5921.647536,-76915.987999
156.779241,-17764.942608,9178.553681,-75383.797003
156.781804,4885.359217,7550.100608,-74924.139704
156.784366,5773.606348,7402.059420,-77528.864398
156.786930,-13619.789333,11399.171507,-76456.330700
156.789495,6217.729913,6661.853478,-77528.864398
156.792059,-11251.130318,6365.771101,-74464.482406
156.794623,-10807.006753,10066.800811,-75690.235202
156.797188,-2220.617826,7698.141797,-77528.864398
156.799752,-888.247130,7105.977043,-76762.768900
156.802316,7994.224174,9178.553681,-75843.454302
156.804881,-2664.741391,8882.471304,-75230.577904
156.807445,-13619.789333,6513.812290,-77682.083497
156.810009,-28868.031738,10214.842000,-75230.577904
156.812574,12287.418637,6217.729913,-75690.235202
156.815138,6809.894666,4293.194464,-77222.426198
156.817702,-21465.972318,13767.830521,-74617.701505
156.820267,26351.331535,3849.070898,-79673.931792
156.822831,11103.089130,6365.771101,-78448.178995
156.825395,-14656.077652,10510.924376,-75230.577904
156.827960,-39378.956114,10807.006753,-72166.195912
156.830524,58920.392983,2960.823768,-80746.465489
156.833088,-32421.020260,11399.171507,-72012.976812
156.835653,0.000000,9770.718434,-75996.673402
156.838217,59512.557737,2072.576638,-80440.027290
156.840781,-22058.137072,13027.624579,-73851.606007
156.843346,-27387.619854,12287.418637,-72625.853210
156.845910,52258.539505,-5033.400406,-82125.437386
156.848474,8438.347739,7254.018232,-77528.864398
156.851039,-21910.095883,14804.118840,-72012.976812
156.853603,14952.160028,3701.029710,-77988.521696
156.856167,16876.695478,8586.388927,-79061.055394
156.858732,-25463.084405,12287.418637,-73391.948708
156.861296,17172.777854,2960.823768,-78141.740796
156.863860,7994.224174,8438.347739,-77528.864398
156.866424,888.247130,11103.089130,-74004.825107
156.868989,5033.400406,7105.977043,-76762.768900
156.871553,-592.164754,6809.894666,-76609.549800
156.874117,-592.164754,9030.512492,-74924.139704
156.876682,10066.800811,9178.553681,-75077.358804
156.879246,9622.677246,6069.688724,-76149.892501
156.881810,1036.288319,9474.636058,-75996.673402
156.884375,-2220.617826,6809.894666,-76915.987999
156.886939,1480.411884,8586.388927,-76456.330700
156.889505,-4145.153275,9918.759623,-75843.454302
156.892071,11991.336260,3701.029710,-75537.016103
156.894638,10214.842000,10214.842000,-76609.549800
156.897204,1036.288319,11103.089130,-76149.892501
156.899770,2220.617826,6069.688724,-75690.235202
156.902336,37306.379477,10510.924376,-78754.617194
156.904902,-35974.008781,9770.718434,-70634.004916
156.907468,-3849.070898,9326.594869,-76762.768900
156.910034,23834.631332,3256.906145,-78907.836294
156.912601,-49001.633360,7550.100608,-74004.825107
156.915167,15544.324782,8290.306550,-75383.797003
156.917733,19097.313304,5181.441594,-80440.027290
156.920299,-47817.303853,15988.448347,-72625.853210
156.922865,-28275.866984,12731.542202,-71706.538613
156.925431,41895.656317,1628.453072,-79214.274493
156.927997,-27683.702231,7846.182985,-75077.358804
156.930564,-12879.583391,11251.130318,-76456.330700
156.933130,10807.006753,3701.029710,-77682.083497
156.935696,-20429.683999,12139.377449,-74004.825107
156.938262,-9474.636058,8586.388927,-74770.920605
156.940828,14804.118840,4293.194464,-77069.207099
156.943394,-9474.636058,12435.459826,-74770.920605
156.945960,888.247130,7994.224174,-76609.549800
156.948527,8290.306550,4441.235652,-77682.083497
156.951093,-14211.954086,9178.553681,-74924.139704
156.953659,-15100.201217,8882.471304,-74311.263306
156.956225,6069.688724,5033.400406,-78448.178995
156.958791,-9030.512492,9326.594869,-75077.358804
156.961357,5181.441594,8438.347739,-76149.892501
156.963923,2812.782580,8586.388927,-75843.454302
156.966490,-19393.395680,9474.636058,-77069.207099
156.969056,-148.041188,4737.318029,-77682.083497
156.971622,-13767.830521,7846.182985,-74311.263306
156.974188,-6365.771101,9474.636058,-75690.235202
156.976754,22502.260637,5477.523971,-79827.150892
156.979320,-23242.466579,11547.212695,-73238.729609
156.981886,-21614.013506,10362.883188,-75230.577904
156.984453,31088.649564,740.205942,-79367.493593
156.987019,-27831.743419,10807.006753,-75230.577904
156.989585,17320.819043,8882.471304,-74158.044206
156.992152,17172.777854,5329.482782,-79520.712692
156.994720,-8290.306550,11695.253884,-74770.920605
156.997287,-29164.114115,11251.130318,-71706.538613
156.999854,23538.548956,6217.729913,-77222.426198
157.002422,444.123565,6809.894666,-78907.836294
157.004989,-34345.555709,12435.459826,-71400.100414
157.007557,29904.320057,4293.194464,-79367.493593
157.010124,14359.995275,5181.441594,-79673.931792
157.012691,-17764.942608,13323.706956,-73391.948708
157.015259,16728.654289,4441.235652,-77528.864398
157.017826,-1628.453072,10807.006753,-75843.454302
157.020394,-9622.677246,7105.977043,-75690.235202
157.022961,11547.212695,6365.771101,-76149.892501
157.025528,19837.519246,7698.141797,-77835.302597
157.028096,-3552.988522,12583.501014,-75996.673402
157.030663,-8586.388927,5773.606348,-76149.892501
157.033231,21317.931130,5329.482782,-77069.207099
157.035798,-3997.112087,10362.883188,-75996.673402
157.038365,-2072.576638,4737.318029,-77222.426198
157.040933,8734.430116,7698.141797,-78448.178995
157.043500,4293.194464,10066.800811,-76303.111601
157.046068,5625.565159,8290.306550,-75537.016103
157.048635,2220.617826,7846.182985,-75230.577904
157.051202,6069.688724,6809.894666,-76456.330700
157.053770,27683.702231,9326.594869,-78294.959896
157.056337,-39823.079680,8438.347739,-74158.044206
157.058905,22946.384202,3849.070898,-79980.369991
157.061472,2368.659014,5181.441594,-79061.055394
157.064039,-15544.324782,14508.036463,-72779.072310
157.066607,5477.523971,3404.947333,-79367.493593
157.069174,16432.571912,10214.842000,-77375.645298
157.071742,-49741.839302,11251.130318,-72012.976812
157.074309,-26055.249158,7994.224174,-76456.330700
157.076876,31384.731941,592.164754,-80746.465489
157.079444,-11103.089130,13027.624579,-73851.606007
157.082011,-5921.647536,8142.265362,-73545.167808
157.084579,31088.649564,7698.141797,-80133.589091
157.087146,-43820.191766,13027.624579,-73851.606007
157.089713,-8734.430116,6513.812290,-75383.797003
157.092281,3256.906145,6069.688724,-76762.768900
157.094850,-2664.741391,6069.688724,-76762.768900
157.097418,-8734.430116,9326.594869,-74464.482406
157.099987,148.041188,8586.388927,-75843.454302
157.102556,7698.141797,7550.100608,-78907.836294
157.105124,-14063.912898,7846.182985,-77222.426198
157.107693,-9918.759623,8882.471304,-73391.948708
157.110262,0.000000,7994.224174,-76762.768900
157.112830,-10066.800811,7846.182985,-76456.330700
157.115399,-1628.453072,7402.059420,-76456.330700
157.117968,4589.276840,11103.089130,-74617.701505
157.120537,-20873.807564,9326.594869,-76762.768900
157.123105,6217.729913,5033.400406,-77528.864398
157.125674,13027.624579,6069.688724,-77069.207099
157.128243,-23242.466579,13323.706956,-73545.167808
157.130811,18357.107362,3108.864956,-79061.055394
157.133380,-4589.276840,8882.471304,-77682.083497
157.135949,-40267.203245,13619.789333,-73698.386908
157.138517,15988.448347,2812.782580,-76915.987999
157.141086,11695.253884,5773.606348,-80593.246390
157.143655,-16876.695478,10658.965565,-71706.538613
157.146224,28719.990550,5477.523971,-80286.808190
157.148792,47669.262665,6069.688724,-79061.055394
157.151361,-27831.743419,11399.171507,-73085.510509
157.153930,-11547.212695,10955.047942,-73698.386908
157.156498,40711.326810,-592.164754,-80899.684589
157.159067,-36566.173535,11251.130318,-71706.538613
157.161636,9918.759623,9918.759623,-75843.454302
157.164205,27831.743419,2516.700203,-80593.246390
157.166773,-13027.624579,11843.295072,-74924.139704
157.169342,-4737.318029,8882.471304,-74770.920605
157.171911,12139.377449,5773.606348,-79214.274493
157.174479,-3552.988522,9030.512492,-75537.016103
157.177048,7698.141797,9770.718434,-73698.386908
157.179617,9326.594869,6809.894666,-77835.302597
157.182185,4441.235652,9326.594869,-76303.111601
157.184754,10807.006753,6661.853478,-77375.645298
157.187323,-4145.153275,7402.059420,-74311.263306
157.189892,3997.112087,8882.471304,-77222.426198
157.192460,-1480.411884,7846.182985,-77069.207099
157.195029,-10510.924376,7994.224174,-75843.454302
157.197596,17468.860231,7994.224174,-76609.549800
157.200164,6809.894666,8734.430116,-75843.454302
157.202732,9178.553681,6365.771101,-78754.617194
157.205300,6661.853478,9622.677246,-75230.577904
157.207868,-27683.702231,5773.606348,-72932.291410
157.210436,41895.656317,7550.100608,-79673.931792
157.213004,-16580.613101,9918.759623,-75230.577904
157.215572,-10658.965565,14211.954086,-73238.729609
157.218140,23982.672521,4441.235652,-78754.617194
157.220708,-25463.084405,7105.977043,-76915.987999
157.223276,-19245.354492,10807.006753,-73391.948708
157.225844,14952.160028,3701.029710,-77988.521696
157.228413,6365.771101,8142.265362,-78601.398095
157.230981,-31976.896694,12879.583391,-71859.757712
157.233549,34641.638086,4441.235652,-77222.426198
157.236117,-10362.883188,8438.347739,-78754.617194
157.238685,-25463.084405,11547.212695,-74924.139704
157.241253,2220.617826,1480.411884,-78907.836294
157.243821,-8290.306550,10214.842000,-74004.825107
157.246389,-12879.583391,10214.842000,-76149.892501
157.248957,-4589.276840,9622.677246,-75690.235202
157.251525,11547.212695,7846.182985,-75690.235202
157.254093,-3701.029710,9918.759623,-78448.178995
157.256661,-11547.212695,8290.306550,-75077.358804
157.259229,4145.153275,5477.523971,-76456.330700
157.261797,-17468.860231,8882.471304,-75843.454302
157.264365,-11843.295072,6069.688724,-77069.207099
157.266933,3256.906145,8142.265362,-76609.549800
157.269501,-4145.153275,8882.471304,-76609.549800
157.272069,-9178.553681,10066.800811,-75537.016103
157.274637,-13471.748144,9918.759623,-74004.825107
157.277205,5625.565159,6957.935855,-76915.987999
157.279773,-11103.089130,7994.224174,-75537.016103
157.282341,-14952.160028,9326.594869,-75230.577904
157.284909,9770.718434,4737.318029,-79827.150892
157.287477,-1184.329507,9918.759623,-76915.987999
157.290045,-45596.686027,14952.160028,-68948.594820
157.292613,61585.134374,-592.164754,-81052.903688
157.295181,-24130.713709,8290.306550,-73851.606007
157.297749,-3552.988522,11843.295072,-74004.825107
157.300316,26499.372724,4145.153275,-78907.836294
157.302884,32272.979071,2516.700203,-83044.751983
157.305451,-50926.168810,17764.942608,-71093.662214
157.308019,35974.008781,296.082377,-78294.959896
157.310586,12583.501014,5921.647536,-78141.740796
157.313154,-16580.613101,12731.542202,-73238.729609
157.315721,11695.253884,6365.771101,-76303.111601
157.318288,16284.530724,7105.977043,-77222.426198
157.320856,-18505.148550,11399.171507,-75230.577904
157.323423,-9622.677246,6217.729913,-75537.016103
157.325991,19541.436869,6217.729913,-76609.549800
157.328558,592.164754,12139.377449,-75077.358804
157.331126,7254.018232,6661.853478,-77682.083497
157.333693,9474.636058,7105.977043,-78448.178995
157.336260,-1332.370696,10066.800811,-73238.729609
157.338828,3849.070898,4885.359217,-76609.549800
157.341395,-8734.430116,7254.018232,-75843.454302
157.343963,-1332.370696,8586.388927,-76456.330700
157.346530,14063.912898,7402.059420,-75843.454302
157.349098,0.000000,7698.141797,-75230.577904
157.351665,7846.182985,7254.018232,-77682.083497
157.354233,17468.860231,7105.977043,-77069.207099
157.356800,-37602.461854,7402.059420,-72319.415011
157.359367,40859.367998,7994.224174,-79214.274493
157.361935,-10214.842000,6809.894666,-76149.892501
157.364502,-14508.036463,15100.201217,-74004.825107
157.367070,25018.960840,4885.359217,-78907.836294
157.369637,-21762.054695,9030.512492,-75996.673402
157.372205,-25907.207970,7846.182985,-73698.386908
157.374772,9474.636058,1776.494261,-78141.740796
157.377339,11103.089130,8142.265362,-78448.178995
157.379907,-29460.196492,12879.583391,-71706.538613
157.382474,27535.661042,5625.565159,-76762.768900
157.385042,-3701.029710,7698.141797,-78294.959896
157.387609,-22502.260637,9918.759623,-74924.139704
157.390177,-4441.235652,4885.359217,-78141.740796
157.392744,-7550.100608,9474.636058,-75077.358804
157.395312,-7994.224174,7254.018232,-77375.645298
157.397879,-1924.535449,7698.141797,-74924.139704
157.400447,3701.029710,8882.471304,-75230.577904
157.403015,888.247130,8290.306550,-78294.959896
157.405582,-1480.411884,5329.482782,-76456.330700
157.408150,-14063.912898,8438.347739,-74311.263306
157.410717,-9326.594869,9622.677246,-74311.263306
157.413285,-5921.647536,6809.894666,-77682.083497
157.415852,-11103.089130,7254.018232,-76456.330700
157.418420,-7402.059420,9474.636058,-74924.139704
157.420987,8882.471304,7994.224174,-75537.016103
157.423555,12139.377449,3404.947333,-78754.617194
157.426122,-22798.343014,9770.718434,-75690.235202
157.428690,7550.100608,5921.647536,-75230.577904
157.431257,-8290.306550,8586.388927,-77375.645298
157.433825,-35974.008781,10807.006753,-77222.426198
157.436392,13027.624579,5329.482782,-75537.016103
157.438960,16876.695478,7994.224174,-78601.398095
157.441527,-14211.954086,10807.006753,-71093.662214
157.444095,30348.443622,4589.276840,-81206.122788
157.446662,10066.800811,11103.089130,-75383.797003
157.449230,-30348.443622,10955.047942,-72779.072310
157.451797,-14359.995275,11103.089130,-74924.139704
157.454365,40415.244433,-296.082377,-80746.465489
157.456932,-34493.596897,13767.830521,-70480.785816
157.459500,14063.912898,9474.636058,-75383.797003
157.462068,24130.713709,3552.988522,-78754.617194
157.464635,8290.306550,8586.388927,-77069.207099
157.467203,-22058.137072,10066.800811,-73851.606007
157.469770,10955.047942,5329.482782,-77988.521696
157.472338,2664.741391,7846.182985,-77222.426198
157.474905,-7846.182985,10955.047942,-73698.386908
157.477473,15396.283594,6957.935855,-77069.207099
157.480040,18209.066173,7698.141797,-78754.617194
157.482608,-14508.036463,11251.130318,-72779.072310
157.485125,3997.112087,7402.059420,-75690.235202
157.487642,2368.659014,6069.688724,-77222.426198
157.490159,-1332.370696,8142.265362,-76915.987999
157.492677,13323.706956,7550.100608,-74617.701505
157.495194,12435.459826,11103.089130,-77069.207099
157.497711,-8438.347739,7994.224174,-75690.235202
157.500228,17024.736666,6365.771101,-75690.235202
157.502746,6069.688724,13323.706956,-75843.454302
157.505263,-29016.072926,9474.636058,-72932.291410
157.507780,1332.370696,1332.370696,-79827.150892
157.510297,24870.919651,8586.388927,-77069.207099
157.512815,-39526.997303,7994.224174,-72166.195912
157.515332,31236.690752,9030.512492,-77375.645298
157.517849,-20577.725188,7550.100608,-77375.645298
157.520366,-34197.514520,12139.377449,-74004.825107
157.522884,26795.455100,3404.947333,-79367.493593
157.525401,25018.960840,4145.153275,-78601.398095
157.527918,-26055.249158,8734.430116,-73085.510509
157.530436,19541.436869,10955.047942,-77835.302597
157.532953,-17172.777854,7846.182985,-76149.892501
157.535470,-21317.931130,7254.018232,-76456.330700
157.537987,-6957.935855,7402.059420,-76149.892501
157.540505,3256.906145,4885.359217,-78141.740796
157.543022,-3997.112087,8142.265362,-74617.701505
157.545539,5477.523971,7994.224174,-77375.645298
157.548056,592.164754,8290.306550,-77528.864398
157.550574,-11251.130318,9622.677246,-75230.577904
157.553091,-10066.800811,7698.141797,-75383.797003
157.555608,-10955.047942,6513.812290,-76149.892501
157.558125,-13175.665768,9474.636058,-77222.426198
157.560643,-1184.329507,6809.894666,-76762.768900
157.563160,-592.164754,10955.047942,-75383.797003
157.565677,21614.013506,5625.565159,-77682.083497
157.568194,-21910.095883,8882.471304,-77222.426198
157.570712,4145.153275,6957.935855,-75690.235202
157.573229,-444.123565,7698.141797,-76915.987999
157.575746,-21317.931130,10807.006753,-76609.549800
157.578263,-20281.642811,9622.677246,-73391.948708
157.580781,48261.427418,4589.276840,-80746.465489
157.583298,-19837.519246,11103.089130,-71093.662214
157.585826,9326.594869,7550.100608,-76915.987999
157.588354,41303.491564,6069.688724,-78294.959896
157.590882,-35085.761651,11695.253884,-73851.606007
157.593410,-6513.812290,8438.347739,-74924.139704
157.595938,25463.084405,1036.288319,-80746.465489
157.598466,-11843.295072,10066.800811,-72779.072310
157.600994,-1628.453072,11991.336260,-74464.482406
157.603523,23982.672521,3552.988522,-78601.398095
157.606051,9326.594869,9474.636058,-77682.083497
157.608579,-18653.189738,11399.171507,-73391.948708
157.611107,1776.494261,6513.812290,-77069.207099
157.613635,5921.647536,6661.853478,-77069.207099
157.616163,-6365.771101,9030.512492,-73545.167808
157.618691,23982.672521,7846.182985,-77528.864398
157.621219,6957.935855,9622.677246,-78141.740796
157.623747,-8438.347739,9770.718434,-74924.139704
157.626275,-9178.553681,7254.018232,-75077.358804
157.628803,12731.542202,4589.276840,-78754.617194
157.631331,6069.688724,8586.388927,-76609.549800
157.633860,-8882.471304,9770.718434,-74004.825107
157.636388,19245.354492,7254.018232,-77682.083497
157.638916,8290.306550,9918.759623,-77222.426198
157.641444,-9918.759623,4737.318029,-73545.167808
157.643972,37898.544230,10807.006753,-77069.207099
157.646500,-4293.194464,6513.812290,-77375.645298
157.649028,-23390.507767,16284.530724,-72932.291410
157.651556,26499.372724,3108.864956,-79827.150892
157.654084,-13767.830521,7698.141797,-76456.330700
157.656612,-35233.802839,10066.800811,-73851.606007
157.659140,27979.784608,592.164754,-80440.027290
157.661669,-18653.189738,13175.665768,-75537.016103
157.664197,-29460.196492,9918.759623,-72625.853210
157.666725,32421.020260,2516.700203,-79673.931792
157.669253,-11695.253884,6809.894666,-76149.892501
157.671781,-20429.683999,13767.830521,-74617.701505
157.674309,-5477.523971,5625.565159,-76456.330700
157.676837,-11843.295072,7550.100608,-75843.454302
157.679365,-888.247130,9326.594869,-75690.235202
157.681893,-2072.576638,9030.512492,-75843.454302
157.684421,-1184.329507,8882.471304,-73698.386908
157.686959,740.205942,7846.182985,-78754.617194
157.689496,592.164754,6957.935855,-76762.768900
157.692033,-10214.842000,8438.347739,-75077.358804
157.694570,-15100.201217,8882.471304,-74158.044206
157.697107,-15100.201217,6661.853478,-77069.207099
157.699645,1628.453072,6661.853478,-79061.055394
157.702182,-9030.512492,10807.006753,-73085.510509
157.704719,22058.137072,5921.647536,-78141.740796
157.707256,-10066.800811,8734.430116,-77835.302597
157.709793,-7402.059420,6661.853478,-76303.111601
157.712331,-7994.224174,9326.594869,-76303.111601
157.714868,-37602.461854,9474.636058,-76149.892501
157.717405,8290.306550,5773.606348,-76456.330700
157.719942,22946.384202,6513.812290,-79520.712692
157.722479,-11103.089130,8586.388927,-73238.729609
157.725017,4145.153275,9030.512492,-76609.549800
157.727554,41747.615129,6069.688724,-77682.083497
157.730091,-23982.672521,11695.253884,-74770.920605
157.732628,-18653.189738,11991.336260,-73238.729609
157.735165,33457.308578,-444.123565,-81512.560987
157.737703,-26647.413912,11843.295072,-71400.100414
157.740240,13471.748144,12879.583391,-75690.235202
157.742777,28868.031738,740.205942,-80133.589091
157.745314,-1332.370696,11103.089130,-75843.454302
157.747852,-15544.324782,12435.459826,-75537.016103
157.750389,-7550.100608,7994.224174,-74924.139704
157.752926,15248.242405,5329.482782,-78448.178995
157.755463,1628.453072,9770.718434,-74158.044206
157.758000,3256.906145,10362.883188,-75230.577904
157.760538,16432.571912,6365.771101,-77835.302597
157.763075,4441.235652,8142.265362,-77988.521696
157.765612,-12139.377449,8882.471304,-74158.044206
157.768149,6217.729913,7402.059420,-76149.892501
157.770686,15988.448347,4737.318029,-78754.617194
157.773224,3256.906145,11695.253884,-75230.577904
157.775761,-10066.800811,9622.677246,-74311.263306
157.778298,39082.873738,5033.400406,-79214.274493
157.780835,-14211.954086,12287.418637,-75996.673402
157.783372,-16876.695478,7994.224174,-73698.386908
157.785910,11547.212695,148.041188,-79061.055394
157.788454,3552.988522,13323.706956,-77222.426198
157.790999,-25907.207970,7254.018232,-73391.948708
157.793544,34049.473332,8438.347739,-79214.274493
157.796089,-5033.400406,6365.771101,-78294.959896
157.798634,-45152.562462,13027.624579,-72932.291410
157.801179,21614.013506,2220.617826,-79520.712692
157.803724,9030.512492,7254.018232,-75537.016103
157.806268,-18061.024985,11695.253884,-74464.482406
157.808813,17764.942608,6069.688724,-78907.836294
157.811358,-19689.478057,8142.265362,-77375.645298
157.813903,-13619.789333,10214.842000,-74158.044206
157.816448,-5625.565159,8438.347739,-76609.549800
157.818993,-3701.029710,3849.070898,-78448.178995
157.821537,-2812.782580,8290.306550,-74617.701505
157.824082,-296.082377,7105.977043,-76915.987999
157.826627,3552.988522,9474.636058,-77375.645298
157.829172,-12583.501014,8142.265362,-75843.454302
157.831717,-12139.377449,7254.018232,-75230.577904
157.834262,-12879.583391,8438.347739,-76609.549800
157.836807,-10066.800811,6809.894666,-78294.959896
157.839351,592.164754,9474.636058,-75230.577904
157.841896,17468.860231,7105.977043,-76915.987999
157.844441,-11547.212695,9326.594869,-75537.016103
157.846986,-11547.212695,5625.565159,-76303.111601
157.849531,444.123565,8290.306550,-77835.302597
157.852076,-35974.008781,9770.718434,-74311.263306
157.854620,-13027.624579,8438.347739,-74617.701505
157.857165,46929.056723,3256.906145,-81665.780087
157.859710,-20133.601622,11695.253884,-71246.881314
157.862255,15248.242405,7254.018232,-76456.330700
157.864800,36418.132346,8290.306550,-77222.426198
157.867345,-37602.461854,10510.924376,-72625.853210
157.869890,-35677.926404,12731.542202,-71553.319513
157.872434,37454.420665,-444.123565,-81052.903688
157.874979,10807.006753,7254.018232,-76915.987999
157.877524,-1924.535449,11547.212695,-74004.825107
157.880069,10658.965565,6513.812290,-76456.330700
157.882614,10955.047942,6217.729913,-77069.207099
157.885159,-2960.823768,10510.924376,-77069.207099
157.887703,-13323.706956,8734.430116,-75690.235202
157.890209,-740.205942,5181.441594,-75996.673402
157.892714,15544.324782,7846.182985,-76303.111601
157.895219,7254.018232,8882.471304,-76609.549800
157.897725,-5033.400406,7105.977043,-76303.111601
157.900230,5921.647536,9178.553681,-74311.263306
157.902735,10362.883188,7698.141797,-76456.330700
157.905241,-2812.782580,6217.729913,-77069.207099
157.907746,3849.070898,9770.718434,-76762.768900
157.910251,-4885.359217,8586.388927,-75996.673402
157.912756,22206.178260,7698.141797,-76915.987999
157.915262,-23834.631332,6513.812290,-74770.920605
157.917767,28275.866984,6069.688724,-79367.493593
157.920272,2664.741391,7254.018232,-76303.111601
157.922778,-4441.235652,17024.736666,-74311.263306
157.925283,-15248.242405,5773.606348,-75537.016103
157.927788,21021.848753,7402.059420,-78448.178995
157.930293,-45596.686027,12435.459826,-71553.319513
157.932799,13175.665768,2368.659014,-78754.617194
157.935304,20577.725188,7105.977043,-80286.808190
157.937809,-35825.967593,14804.118840,-69714.690318
157.940315,19097.313304,6513.812290,-76762.768900
157.942820,7254.018232,6069.688724,-79214.274493
157.945325,-30052.361245,13323.706956,-73545.167808
157.947831,-12583.501014,7698.141797,-74311.263306
157.950336,2220.617826,4885.359217,-77069.207099
157.952841,-3849.070898,6513.812290,-77835.302597
157.955346,-4293.194464,11399.171507,-73085.510509
157.957852,-5329.482782,8142.265362,-74617.701505
157.960357,8586.388927,7105.977043,-79061.055394
157.962862,-6513.812290,6661.853478,-78294.959896
157.965368,-19097.313304,8290.306550,-73698.386908
157.967873,-15396.283594,9770.718434,-75383.797003
157.970378,10510.924376,4737.318029,-79061.055394
157.972883,2812.782580,6957.935855,-77835.302597
157.975389,-4737.318029,11843.295072,-72779.072310
157.977894,11103.089130,6217.729913,-77988.521696
157.980399,-20577.725188,6661.853478,-76149.892501
157.982905,-10066.800811,7105.977043,-76303.111601
157.985410,-444.123565,8882.471304,-77375.645298
157.987915,-37306.379477,12731.542202,-70174.347617
157.990435,51962.457128,2516.700203,-83044.751983
157.992955,-13619.789333,8882.471304,-71553.319513
157.995475,-12287.418637,13323.706956,-71246.881314
157.997995,25315.043216,3552.988522,-78907.836294
158.000515,19837.519246,5033.400406,-78754.617194
158.003035,-42043.697506,15840.407159,-72012.976812
158.005555,31680.814318,1480.411884,-78601.398095
158.008075,-3552.988522,7698.141797,-76456.330700
158.010595,-4589.276840,11399.171507,-74464.482406
158.013115,24278.754898,6217.729913,-77528.864398
158.015635,11843.295072,8142.265362,-76915.987999
158.018155,-15396.283594,9178.553681,-75843.454302
158.020675,-10510.924376,6217.729913,-77069.207099
158.023195,6365.771101,8142.265362,-75690.235202
158.025715,4293.194464,8438.347739,-75537.016103
158.028235,5625.565159,6513.812290,-78448.178995
158.030755,9474.636058,8882.471304,-77375.645298
158.033275,7402.059420,9918.759623,-74924.139704
158.035795,5181.441594,7254.018232,-75996.673402
158.038315,-3256.906145,6809.894666,-76609.549800
158.040835,3997.112087,7846.182985,-78601.398095
158.043355,-1924.535449,7698.141797,-75230.577904
158.045875,1628.453072,6365.771101,-74617.701505
158.048395,32717.102636,11251.130318,-78448.178995
158.050915,-15692.365970,8586.388927,-74311.263306
158.053435,-13767.830521,9474.636058,-74924.139704
158.055955,25463.084405,5181.441594,-79673.931792
158.058475,-48409.468607,5773.606348,-75077.358804
158.060994,12139.377449,9770.718434,-75996.673402
158.063514,2220.617826,5773.606348,-78754.617194
158.066034,-41895.656317,13323.706956,-72779.072310
158.068554,15100.201217,1480.411884,-74924.139704
158.071074,28571.949361,4293.194464,-79061.055394
158.073594,-11991.336260,9770.718434,-74158.044206
158.076114,-7254.018232,9770.718434,-75230.577904
158.078634,2664.741391,4441.235652,-77682.083497
158.081154,-20429.683999,11991.336260,-75077.358804
158.083674,-11547.212695,8290.306550,-75077.358804
158.086194,4441.235652,3404.947333,-77988.521696
158.088714,592.164754,10214.842000,-74924.139704
158.091246,3997.112087,8734.430116,-75843.454302
158.093779,-12583.501014,9030.512492,-75537.016103
158.096311,-17320.819043,7105.977043,-75843.454302
158.098843,-11251.130318,9178.553681,-75077.358804
158.101375,-4293.194464,6217.729913,-76149.892501
158.103907,4589.276840,7698.141797,-76456.330700
158.106440,3997.112087,9326.594869,-75383.797003
158.108972,-4293.194464,8734.430116,-76762.768900
158.111504,-9030.512492,7402.059420,-75537.016103
158.114036,-888.247130,6661.853478,-78601.398095
158.116568,-28719.990550,9622.677246,-74617.701505
158.119100,-49741.839302,14656.077652,-69867.909418
158.121633,51962.457128,4293.194464,-80899.684589
158.124165,296.082377,6661.853478,-76149.892501
158.126697,-6365.771101,13027.624579,-72932.291410
158.129229,32865.143825,4441.235652,-78754.617194
158.131761,10214.842000,8586.388927,-79061.055394
158.134294,-42931.944636,14211.954086,-70480.785816
158.136826,36862.255912,148.041188,-79673.931792
158.139358,-10214.842000,8882.471304,-74311.263306
158.141890,-592.164754,10807.006753,-75690.235202
158.144422,6809.894666,8142.265362,-75383.797003
158.146955,11843.295072,7254.018232,-75690.235202
158.149487,592.164754,8882.471304,-77988.521696
158.152019,-14359.995275,8290.306550,-75996.673402
158.154551,-2516.700203,6957.935855,-74617.701505
158.157083,11399.171507,6513.812290,-76149.892501
158.159616,13915.871710,8882.471304,-78141.740796
158.162148,6069.688724,8586.388927,-76303.111601
158.164680,3997.112087,9622.677246,-75077.358804
158.167212,14952.160028,6365.771101,-76609.549800
158.169744,4293.194464,8586.388927,-77988.521696
158.172276,-14211.954086,9326.594869,-75843.454302
158.174809,23982.672521,7402.059420,-76149.892501
158.177341,-23094.425390,6809.894666,-73851.606007
158.179873,20725.766376,7402.059420,-78601.398095
158.182405,17320.819043,4737.318029,-77835.302597
158.184937,-21169.889941,16876.695478,-72012.976812
158.187470,9622.677246,5181.441594,-76915.987999
158.190002,-18653.189738,5625.565159,-78907.836294
158.192544,-41895.656317,11991.336260,-72625.853210
158.195086,7105.977043,5181.441594,-77375.645298
158.197628,21169.889941,6513.812290,-78754.617194
158.200170,-31384.731941,12879.583391,-71553.319513
158.202713,11843.295072,6809.894666,-76303.111601
158.205255,15692.365970,5921.647536,-79061.055394
158.207797,-33309.267390,11251.130318,-74004.825107
158.210339,-1628.453072,5329.482782,-77222.426198
158.212882,1332.370696,8438.347739,-76762.768900
158.215424,-23834.631332,9178.553681,-75843.454302
158.217966,-10510.924376,10510.924376,-73698.386908
158.220509,2960.823768,7698.141797,-75230.577904
158.223051,4441.235652,8882.471304,-77528.864398
158.225593,-11547.212695,6809.894666,-77682.083497
158.228135,-27683.702231,9178.553681,-73545.167808
158.230678,10214.842000,6809.894666,-75996.673402
158.233220,-4737.318029,8734.430116,-76456.330700
158.235762,-3108.864956,8438.347739,-75996.673402
158.238305,-296.082377,7994.224174,-76609.549800
158.240847,5625.565159,6513.812290,-75690.235202
158.243389,-7994.224174,4885.359217,-79367.493593
158.245931,-8882.471304,10066.800811,-75843.454302
158.248474,-35529.885216,11547.212695,-70174.347617
158.251016,46336.891969,2812.782580,-81359.341888
158.253558,-9770.718434,8438.347739,-74617.701505
158.256100,9770.718434,10362.883188,-75843.454302
158.258643,37010.297100,7550.100608,-76303.111601
158.261185,-21762.054695,11547.212695,-74924.139704
158.263727,-14508.036463,7402.059420,-74770.920605
158.266270,23686.590144,1776.494261,-78754.617194
158.268812,-4589.276840,9178.553681,-74924.139704
158.271354,3256.906145,10214.842000,-75690.235202
158.273896,19097.313304,4441.235652,-77835.302597
158.276439,6513.812290,9326.594869,-74924.139704
158.278981,-4589.276840,9918.759623,-76915.987999
158.281523,888.247130,6661.853478,-77835.302597
158.284066,-7994.224174,6069.688724,-76149.892501
158.286608,-5773.606348,9178.553681,-74311.263306
158.289150,14656.077652,7550.100608,-76762.768900
158.291692,17320.819043,7698.141797,-79827.150892
158.294242,11103.089130,9178.553681,-75383.797003
158.296791,-11547.212695,9030.512492,-73085.510509
158.299340,6661.853478,4145.153275,-79520.712692
158.301890,4885.359217,8142.265362,-77222.426198
158.304439,-1184.329507,9770.718434,-73238.729609
158.306988,36418.132346,10214.842000,-77682.083497
158.309538,-22946.384202,8586.388927,-74004.825107
158.312087,-5329.482782,6069.688724,-75996.673402
158.314636,26499.372724,6661.853478,-78601.398095
158.317186,-44116.274143,4441.235652,-76149.892501
158.319735,-8734.430116,10658.965565,-74617.701505
158.322285,15544.324782,4589.276840,-78754.617194
158.324834,-36122.049970,13175.665768,-72932.291410
158.327383,1184.329507,5477.523971,-77988.521696
158.329933,21465.972318,6069.688724,-77988.521696
158.332482,-13471.748144,10807.006753,-74924.139704
158.335031,-1776.494261,7550.100608,-76456.330700
158.337581,6809.894666,5921.647536,-78294.959896
158.340130,-34789.679274,11547.212695,-74770.920605
158.342679,-17320.819043,11399.171507,-74924.139704
158.345229,6365.771101,3552.988522,-77835.302597
158.347778,-1628.453072,7994.224174,-75843.454302
158.350327,1776.494261,10214.842000,-75383.797003
158.352877,-10510.924376,9326.594869,-76149.892501
158.355426,-17468.860231,7254.018232,-76762.768900
158.357975,-1776.494261,6809.894666,-74464.482406
158.360525,0.000000,7698.141797,-75383.797003
158.363074,-3552.988522,8734.430116,-75843.454302
158.365623,-4293.194464,8290.306550,-76149.892501
158.368173,-5033.400406,8882.471304,-74617.701505
158.370722,-4145.153275,6661.853478,-77835.302597
158.373271,-14804.118840,9474.636058,-77069.207099
158.375821,-33753.390955,11547.212695,-71093.662214
158.378370,47817.303853,2664.741391,-80440.027290
158.380919,-13619.789333,10066.800811,-73238.729609
158.383469,13471.748144,9326.594869,-77222.426198
158.386018,37010.297100,7846.182985,-77069.207099
158.388567,-28423.908173,11991.336260,-74004.825107
158.391117,-7550.100608,13767.830521,-73391.948708
158.393666,28423.908173,-296.082377,-79367.493593
158.396221,-6069.688724,9622.677246,-74617.701505
158.398777,1924.535449,12287.418637,-74617.701505
158.401332,18209.066173,2960.823768,-78907.836294
158.403888,9622.677246,9770.718434,-75690.235202
158.406443,-5477.523971,11547.212695,-74924.139704
158.408998,-14952.160028,5181.441594,-76915.987999
158.411554,10955.047942,5477.523971,-78448.178995
158.414109,12139.377449,10510.924376,-75690.235202
158.416664,5773.606348,8586.388927,-77375.645298
158.419220,-444.123565,8142.265362,-74924.139704
158.421775,24278.754898,9326.594869,-77375.645298
158.424330,-4441.235652,10807.006753,-73851.606007
158.426886,-10807.006753,6069.688724,-75843.454302
158.429441,15544.324782,7254.018232,-78601.398095
158.431996,-5921.647536,7550.100608,-74311.263306
158.434552,31532.773129,14211.954086,-76609.549800
158.437107,-11991.336260,6661.853478,-74770.920605
158.439663,-7254.018232,6661.853478,-73085.510509
158.442218,18505.148550,5033.400406,-77835.302597
158.444773,-38342.667796,7550.100608,-75843.454302
158.447329,-20429.683999,6957.935855,-75383.797003
158.449884,27091.537477,2664.741391,-80133.589091
158.452439,-34493.596897,15396.283594,-72166.195912
158.454995,-8882.471304,7994.224174,-75690.235202
158.457550,26055.249158,2812.782580,-79367.493593
158.460105,-8438.347739,9918.759623,-74617.701505
158.462661,-11547.212695,10066.800811,-74464.482406
158.465216,14952.160028,5477.523971,-78141.740796
158.467771,-12435.459826,9326.594869,-76149.892501
158.470327,-25759.166782,10510.924376,-74311.263306
158.472882,6217.729913,6069.688724,-77528.864398
158.475437,6365.771101,7550.100608,-76609.549800
158.477998,-11103.089130,9770.718434,-75996.673402
158.480558,-8734.430116,8586.388927,-76609.549800
158.483118,-2220.617826,5921.647536,-77988.521696
158.485678,-17912.983796,10214.842000,-72932.291410
158.488239,9770.718434,5921.647536,-77222.426198
158.490799,-3404.947333,4441.235652,-79673.931792
158.493359,2664.741391,7402.059420,-76609.549800
158.495919,-15988.448347,13323.706956,-72932.291410
158.498480,-22502.260637,6513.812290,-76149.892501
158.501040,30052.361245,3108.864956,-79827.150892
158.503600,-27831.743419,12139.377449,-74311.263306
158.506160,24870.919651,6513.812290,-75230.577904
158.508721,20725.766376,6217.729913,-78907.836294
158.511281,-13619.789333,13471.748144,-73851.606007
158.513841,4293.194464,2960.823768,-76915.987999
158.516402,34345.555709,4145.153275,-78754.617194
158.518962,-10510.924376,10658.965565,-76915.987999
158.521522,-16136.489536,7994.224174,-74004.825107
158.524082,27683.702231,6661.853478,-78448.178995
158.526643,8142.265362,8882.471304,-76915.987999
158.529203,1036.288319,9030.512492,-74158.044206
158.531763,6513.812290,7994.224174,-75843.454302
158.534323,2220.617826,9030.512492,-77069.207099
158.536884,-10214.842000,5921.647536,-76762.768900
158.539444,-3552.988522,8586.388927,-72472.634111
158.542004,14211.954086,10807.006753,-76149.892501
158.544564,17468.860231,6217.729913,-79061.055394
158.547125,1924.535449,7105.977043,-76915.987999
158.549685,2516.700203,10214.842000,-74004.825107
158.552245,5625.565159,6661.853478,-77682.083497
158.554805,-592.164754,7254.018232,-76762.768900
158.557366,-148.041188,6957.935855,-74464.482406
158.559926,33901.432144,10807.006753,-77682.083497
158.562486,-24574.837274,10066.800811,-72932.291410
158.565046,-444.123565,15100.201217,-72319.415011
158.567607,29904.320057,2072.576638,-79367.493593
158.570167,-42931.944636,6217.729913,-74924.139704
158.572727,-15396.283594,11991.336260,-74617.701505
158.575287,17024.736666,2812.782580,-79520.712692
158.577848,-37306.379477,13619.789333,-72779.072310
158.580411,1776.494261,6809.894666,-76456.330700
158.582974,25167.002028,6365.771101,-78754.617194
158.585538,-17172.777854,11399.171507,-74464.482406
158.588101,2368.659014,6661.853478,-76303.111601
158.590664,18061.024985,3552.988522,-79061.055394
158.593228,-27387.619854,12583.501014,-74311.263306
158.595791,-17172.777854,8734.430116,-74924.139704
158.598354,16876.695478,4885.359217,-77222.426198
158.600918,-9918.759623,9770.718434,-74924.139704
158.603481,-10658.965565,8290.306550,-75230.577904
158.606044,5033.400406,7698.141797,-79061.055394
158.608608,-13915.871710,8142.265362,-75537.016103
158.611171,-3404.947333,9178.553681,-74158.044206
158.613734,-1776.494261,5921.647536,-77528.864398
158.616298,-13767.830521,7698.141797,-77222.426198
158.618861,2220.617826,7698.141797,-76303.111601
158.621424,2664.741391,7698.141797,-76456.330700
158.623988,-34493.596897,10807.006753,-74924.139704
158.626551,-4293.194464,7698.141797,-77528.864398
158.629114,31532.773129,4293.194464,-80133.589091
158.631678,-16432.571912,10955.047942,-71706.538613
158.634241,23242.466579,6957.935855,-78141.740796
158.636805,20577.725188,9178.553681,-77835.302597
158.639368,-23242.466579,10066.800811,-74311.263306
158.641931,-12583.501014,12879.583391,-72779.072310
158.644495,29312.155303,148.041188,-80286.808190
158.647058,-19985.560434,7402.059420,-74311.263306
158.649621,9030.512492,12435.459826,-74924.139704
158.652185,20873.807564,5033.400406,-77682.083497
158.654748,4441.235652,7846.182985,-77222.426198
158.657311,740.205942,9918.759623,-75230.577904
158.659875,-7550.100608,7994.224174,-76456.330700
158.662438,-5921.647536,7698.141797,-74617.701505
158.665001,13915.871710,7402.059420,-75996.673402
158.667565,10362.883188,8586.388927,-76915.987999
158.670128,4293.194464,8586.388927,-75537.016103
158.672691,9178.553681,9030.512492,-75383.797003
158.675255,5921.647536,8142.265362,-77375.645298
158.677818,-6513.812290,8882.471304,-74770.920605
158.680381,20577.725188,7550.100608,-76303.111601
158.682948,-4737.318029,10658.965565,-76149.892501
158.685514,-15100.201217,9474.636058,-74770.920605
158.688080,-5921.647536,6069.688724,-76762.768900
158.690646,31088.649564,3997.112087,-79520.712692
158.693213,-45300.603650,7846.182985,-72779.072310
158.695779,17764.942608,9918.759623,-75996.673402
158.698345,-17320.819043,7254.018232,-77988.521696
158.700911,-30940.608376,11695.253884,-74770.920605
158.703478,6069.688724,5773.606348,-76456.330700
158.706044,19097.313304,5921.647536,-78754.617194
158.708610,-16284.530724,11399.171507,-75383.797003
158.711176,2516.700203,6365.771101,-76915.987999
158.713742,4589.276840,7254.018232,-76609.549800
158.716309,-31384.731941,9770.718434,-74617.701505
158.718875,-10807.006753,9918.759623,-76915.987999
158.721441,5477.523971,5477.523971,-76762.768900
158.724007,-8734.430116,9178.553681,-73851.606007
158.726574,-12583.501014,7402.059420,-76149.892501
158.729140,8586.388927,6217.729913,-78907.836294
158.731706,-14804.118840,9770.718434,-75077.358804
158.734272,2516.700203,6661.853478,-75383.797003
158.736839,-2516.700203,7254.018232,-76762.768900
158.739405,-21317.931130,11843.295072,-76303.111601
158.741971,444.123565,4737.318029,-77375.645298
158.744537,2072.576638,2368.659014,-77375.645298
158.747104,16876.695478,9918.759623,-77835.302597
158.749670,-55811.528027,14804.118840,-70634.004916
158.752236,54627.198520,1480.411884,-79980.369991
158.754802,-5625.565159,7698.141797,-75690.235202
158.757369,-9474.636058,11547.212695,-72932.291410
158.759935,45892.768404,3256.906145,-80133.589091
158.762501,-12879.583391,11399.171507,-75230.577904
158.765067,-23686.590144,13323.706956,-72472.634111
158.767633,17912.983796,1776.494261,-78601.398095
158.770200,12583.501014,6513.812290,-77222.426198
158.772766,-9622.677246,10658.965565,-75077.358804
158.775332,13471.748144,6513.812290,-75690.235202
158.777898,12139.377449,7254.018232,-76149.892501
158.780465,1924.535449,10362.883188,-77069.207099
158.783031,-9030.512492,7550.100608,-75230.577904
158.785560,-3256.906145,7698.141797,-74464.482406
158.788088,20133.601622,7402.059420,-77222.426198
158.790617,6365.771101,8438.347739,-77069.207099
158.793146,-7846.182985,8586.388927,-75537.016103
158.795675,10807.006753,8734.430116,-76609.549800
158.798203,2368.659014,8438.347739,-76762.768900
158.800732,8882.471304,7698.141797,-75996.673402
158.803261,-19985.560434,6661.853478,-74617.701505
158.805790,26795.455100,7254.018232,-78601.398095
158.808318,5477.523971,8734.430116,-76456.330700
158.810847,-11399.171507,14656.077652,-73851.606007
158.813376,15396.283594,3849.070898,-78448.178995
158.815905,-27979.784608,8290.306550,-74311.263306
158.818433,-41007.409187,10510.924376,-73851.606007
158.820962,17320.819043,4885.359217,-79520.712692
158.823491,2516.700203,8734.430116,-76609.549800
158.826020,-27831.743419,12287.418637,-71400.100414
158.828548,11547.212695,6069.688724,-78448.178995
158.831077,10214.842000,3552.988522,-79520.712692
158.833606,-25018.960840,11547.212695,-74004.825107
158.836134,12287.418637,6661.853478,-76456.330700
158.838663,-18061.024985,9030.512492,-76456.330700
158.841192,-12731.542202,9030.512492,-76762.768900
158.843721,-3404.947333,6957.935855,-75843.454302
158.846249,-3701.029710,5773.606348,-75690.235202
158.848778,-2516.700203,10807.006753,-76609.549800
158.851307,-5921.647536,7254.018232,-77375.645298
158.853836,7550.100608,6217.729913,-75996.673402
158.856364,-6957.935855,11103.089130,-74770.920605
158.858893,-21465.972318,7550.100608,-76303.111601
158.861422,6661.853478,4885.359217,-79061.055394
158.863951,-5033.400406,10066.800811,-75996.673402
158.866479,-17616.901420,11103.089130,-74770.920605
158.869008,-22502.260637,9918.759623,-74158.044206
158.871537,47817.303853,4441.235652,-81206.122788
158.874066,-20725.766376,9326.594869,-72012.976812
158.876594,10658.965565,8290.306550,-75843.454302
158.879123,29164.114115,8882.471304,-78294.959896
158.881652,-35677.926404,9178.553681,-73085.510509
158.884181,15544.324782,6809.894666,-76456.330700
158.886719,20725.766376,4737.318029,-78294.959896
158.889257,-26943.496289,10066.800811,-72319.415011
158.891796,-3849.070898,9622.677246,-75077.358804
158.894334,26203.290347,5181.441594,-78294.959896
158.896873,5477.523971,11251.130318,-75537.016103
158.899411,-8734.430116,9474.636058,-75230.577904
158.901950,-4441.235652,6513.812290,-76456.330700
158.904488,6957.935855,5329.482782,-77988.521696
158.907027,13027.624579,8290.306550,-75690.235202
158.909565,2220.617826,10214.842000,-74924.139704
158.912104,12139.377449,6069.688724,-78907.836294
158.914642,5181.441594,7994.224174,-77069.207099
158.917181,-2072.576638,10510.924376,-74617.701505
158.919719,16580.613101,7105.977043,-76149.892501
158.922257,-14656.077652,7105.977043,-75230.577904
158.924796,5625.565159,8882.471304,-76149.892501
158.927334,16136.489536,4293.194464,-78448.178995
158.929873,-4145.153275,15248.242405,-75230.577904
158.932411,-740.205942,6661.853478,-76149.892501
158.934950,-11103.089130,6365.771101,-77069.207099
158.937488,-36714.214723,8882.471304,-73851.606007
158.940027,23390.507767,5033.400406,-79520.712692
158.942565,15988.448347,6513.812290,-77069.207099
158.945104,-23390.507767,11399.171507,-72319.415011
158.947642,3552.988522,8438.347739,-75843.454302
158.950181,13323.706956,5329.482782,-79673.931792
158.952719,-22354.219448,9622.677246,-74004.825107
158.955258,-296.082377,8882.471304,-75537.016103
158.957796,-4737.318029,8142.265362,-77222.426198
158.960334,-14211.954086,7698.141797,-76303.111601
158.962873,-8438.347739,8438.347739,-76456.330700
158.965411,-2516.700203,6513.812290,-75077.358804
158.967950,740.205942,8586.388927,-76915.987999
158.970488,1924.535449,7698.141797,-77375.645298
158.973027,-4293.194464,6513.812290,-75383.797003
158.975565,-7550.100608,8438.347739,-75690.235202
158.978104,-7846.182985,9030.512492,-77069.207099
158.980642,-21021.848753,8290.306550,-74617.701505
158.983181,-148.041188,5625.565159,-76456.330700
158.985719,18209.066173,8586.388927,-77682.083497
158.988266,-47965.345042,13175.665768,-70021.128517
158.990812,35233.802839,8586.388927,-75690.235202
158.993358,20577.725188,5329.482782,-79214.274493
158.995905,-27091.537477,11399.171507,-71706.538613
158.998451,26499.372724,3404.947333,-79673.931792
159.000998,21317.931130,7550.100608,-79673.931792
159.003544,-32124.937883,11695.253884,-70940.443115
159.006091,23538.548956,3849.070898,-78141.740796
159.008637,8290.306550,8142.265362,-76149.892501
159.011184,-13471.748144,9474.636058,-74924.139704
159.013730,19837.519246,7105.977043,-76303.111601
159.016277,16728.654289,6513.812290,-77069.207099
159.018823,1332.370696,7254.018232,-78141.740796
159.021370,-6957.935855,7105.977043,-76303.111601
159.023916,8290.306550,9178.553681,-74617.701505
159.026463,13471.748144,6069.688724,-76456.330700
159.029009,5625.565159,9030.512492,-76762.768900
159.031555,2368.659014,10510.924376,-75077.358804
159.034102,888.247130,7402.059420,-75383.797003
159.036648,6365.771101,7994.224174,-76149.892501
159.039195,-2664.741391,6661.853478,-75383.797003
159.041741,28571.949361,6513.812290,-78907.836294
159.044288,10214.842000,7846.182985,-77222.426198
159.046834,-23686.590144,15840.407159,-71553.319513
159.049381,21910.095883,3701.029710,-79673.931792
159.051927,-26351.331535,6069.688724,-75690.235202
159.054474,-28275.866984,10807.006753,-72932.291410
159.057020,23982.672521,3997.112087,-79214.274493
159.059567,-32717.102636,11991.336260,-74158.044206
159.062113,-5477.523971,7402.059420,-75537.016103
159.064660,19985.560434,5921.647536,-77222.426198
159.067206,10362.883188,4885.359217,-78294.959896
159.069752,-22798.343014,10066.800811,-74617.701505
159.072299,7105.977043,7105.977043,-75537.016103
159.074845,-4885.359217,9178.553681,-76915.987999
159.077392,-29904.320057,9622.677246,-74770.920605
159.079938,7846.182985,5181.441594,-78294.959896
159.082485,-7254.018232,9622.677246,-74158.044206
159.085031,-14804.118840,9474.636058,-75230.577904
159.087578,21614.013506,4441.235652,-78601.398095
159.090131,4441.235652,5773.606348,-76915.987999
159.092684,-23686.590144,13027.624579,-75077.358804
159.095238,1628.453072,3701.029710,-77835.302597
159.097791,-10066.800811,8586.388927,-76609.549800
159.100345,-24426.796086,11399.171507,-74004.825107
159.102898,38490.708984,1776.494261,-78754.617194
159.105451,-40267.203245,11251.130318,-74311.263306
159.108005,36566.173535,8290.306550,-76456.330700
159.110558,11843.295072,5033.400406,-77528.864398
159.113111,-16284.530724,12583.501014,-71553.319513
159.115665,2368.659014,5773.606348,-76915.987999
159.118218,37010.297100,5181.441594,-79214.274493
159.120772,-2368.659014,9326.594869,-76149.892501
159.123325,-15544.324782,9622.677246,-73085.510509
159.125878,27239.578666,7402.059420,-78907.836294
159.128432,-148.041188,6069.688724,-76609.549800
159.130985,-4885.359217,10807.006753,-74004.825107
159.133538,16136.489536,6217.729913,-76456.330700
159.136092,2960.823768,8438.347739,-77222.426198
159.138645,-9030.512492,8142.265362,-74770.920605
159.141198,1924.535449,9918.759623,-73238.729609
159.143752,18653.189738,7994.224174,-77375.645298
159.146305,4885.359217,9178.553681,-77069.207099
159.148859,-9770.718434,7846.182985,-77069.207099
159.151412,12139.377449,5625.565159,-75383.797003
159.153965,11547.212695,8142.265362,-75537.016103
159.156519,7994.224174,11843.295072,-76456.330700
159.159072,-17172.777854,6069.688724,-75230.577904
159.161625,5033.400406,3404.947333,-77988.521696
159.164179,17024.736666,11399.171507,-77069.207099
159.166732,-43968.232955,6069.688724,-74004.825107
159.169286,12583.501014,9326.594869,-75690.235202
159.171839,-7550.100608,7994.224174,-77375.645298
159.174392,-38194.626607,9770.718434,-74770.920605
159.176946,27091.537477,3701.029710,-79520.712692
159.179499,-2960.823768,9918.759623,-75690.235202
159.182052,-15692.365970,9178.553681,-74004.825107
159.184606,8734.430116,7550.100608,-77682.083497
159.187159,-7254.018232,7105.977043,-76456.330700
159.189712,-20577.725188,9178.553681,-73698.386908
159.192269,3256.906145,7254.018232,-78754.617194
159.194828,-14359.995275,6217.729913,-77835.302597
159.197386,-7994.224174,10658.965565,-74004.825107
159.199944,6217.729913,6809.894666,-77069.207099
159.202502,-8438.347739,7994.224174,-76149.892501
159.205060,4737.318029,7994.224174,-77222.426198
159.207618,-9030.512492,7254.018232,-75690.235202
159.210176,-10066.800811,9474.636058,-76303.111601
159.212734,-15840.407159,8882.471304,-75230.577904
159.215293,-19541.436869,6957.935855,-75996.673402
159.217851,44412.356520,2664.741391,-79673.931792
159.220409,-46188.850781,15544.324782,-72166.195912
159.222967,36714.214723,5921.647536,-77682.083497
159.225525,20725.766376,5181.441594,-78294.959896
159.228083,-23538.548956,15100.201217,-70940.443115
159.230641,25167.002028,3404.947333,-78754.617194
159.233199,17764.942608,6365.771101,-79367.493593
159.235757,-28719.990550,14656.077652,-70787.224015
159.238316,22354.219448,2664.741391,-77835.302597
159.240874,29460.196492,6217.729913,-78294.959896
159.243432,-12139.377449,9622.677246,-76456.330700
159.245990,6809.894666,8882.471304,-74311.263306
159.248548,20873.807564,6365.771101,-77835.302597
159.251106,-7846.182985,9326.594869,-76762.768900
159.253664,-5033.400406,8586.388927,-75996.673402
159.256222,13619.789333,5921.647536,-76149.892501
159.258781,9474.636058,8290.306550,-75996.673402
159.261339,2368.659014,10658.965565,-76762.768900
159.263897,-1924.535449,5033.400406,-76456.330700
159.266455,7846.182985,8142.265362,-74617.701505
159.269013,11103.089130,8734.430116,-74617.701505
159.271571,21021.848753,9622.677246,-77682.083497
159.274129,-21021.848753,8734.430116,-74770.920605
159.276687,-5477.523971,6661.853478,-75690.235202
159.279246,28275.866984,5033.400406,-78601.398095
159.281804,-45448.644839,8142.265362,-72932.291410
159.284362,23094.425390,9178.553681,-77375.645298
159.286920,-22946.384202,6513.812290,-76915.987999
159.289478,-21317.931130,12435.459826,-72779.072310
159.292036,16876.695478,5329.482782,-79367.493593
159.294598,6661.853478,6661.853478,-76609.549800
159.297160,-18357.107362,11103.089130,-73698.386908
159.299722,2220.617826,7698.141797,-77375.645298
159.302284,0.000000,5033.400406,-77222.426198
159.304846,-23686.590144,10955.047942,-74770.920605
159.307408,7105.977043,7402.059420,-77528.864398
159.309970,-19985.560434,6365.771101,-76762.768900
159.312532,-6217.729913,10807.006753,-74617.701505
159.315094,18209.066173,6069.688724,-78294.959896
159.317656,-4885.359217,8290.306550,-76149.892501
159.320218,-5181.441594,9622.677246,-75690.235202
159.322780,-16728.654289,7402.059420,-75230.577904
159.325342,7994.224174,5921.647536,-77375.645298
159.327904,-13619.789333,10066.800811,-75690.235202
159.330466,-32421.020260,8586.388927,-75230.577904
159.333028,42043.697506,2960.823768,-78907.836294
159.335590,-25018.960840,12139.377449,-76149.892501
159.338152,17320.819043,10510.924376,-72012.976812
159.340713,30348.443622,5329.482782,-78448.178995
159.343275,-5625.565159,12731.542202,-75077.358804
159.345837,-23686.590144,7254.018232,-75690.235202
159.348399,41599.573940,4145.153275,-80593.246390
159.350961,-5773.606348,10658.965565,-74924.139704
159.353523,-19097.313304,9030.512492,-72472.634111
159.356085,33309.267390,6957.935855,-80133.589091
159.358647,-4885.359217,7105.977043,-77528.864398
159.361209,-6513.812290,10510.924376,-73851.606007
159.363771,12287.418637,7994.224174,-76456.330700
159.366333,15100.201217,4885.359217,-78907.836294
159.368895,-8586.388927,10362.883188,-75383.797003
159.371457,8290.306550,8438.347739,-73851.606007
159.374019,15396.283594,8142.265362,-78141.740796
159.376581,-5477.523971,8734.430116,-77069.207099
159.379143,-6217.729913,7698.141797,-76609.549800
159.381705,28275.866984,6513.812290,-75996.673402
159.384267,-29164.114115,9178.553681,-74158.044206
159.386829,25018.960840,5181.441594,-78907.836294
159.389391,25463.084405,888.247130,-79520.712692
159.391953,-3256.906145,17616.901420,-74004.825107
159.394515,-18357.107362,7254.018232,-73545.167808
159.397080,18653.189738,6069.688724,-79827.150892
159.399645,-47077.097911,12435.459826,-71706.538613
159.402211,13175.665768,2960.823768,-79214.274493
159.404776,7994.224174,8290.306550,-77528.864398
159.407341,-28127.825796,10807.006753,-74158.044206
159.409906,1184.329507,5921.647536,-75230.577904
159.412472,12583.501014,6069.688724,-78294.959896
159.415037,-9030.512492,7698.141797,-77222.426198
159.417602,-15544.324782,9622.677246,-74158.044206
159.420168,14359.995275,8438.347739,-77375.645298
159.422733,-33901.432144,7402.059420,-75843.454302
159.425298,8290.306550,8290.306550,-75843.454302
159.427863,296.082377,7698.141797,-77222.426198
159.430429,-12139.377449,10362.883188,-74464.482406
159.432994,3404.947333,5625.565159,-78141.740796
159.435559,-9030.512492,8142.265362,-75690.235202
159.438124,-4145.153275,6069.688724,-77682.083497
159.440690,-14656.077652,10510.924376,-74924.139704
159.443255,-26647.413912,9178.553681,-75230.577904
159.445820,41155.450375,1924.535449,-79673.931792
159.448386,-33309.267390,12879.583391,-74770.920605
159.450951,27535.661042,7698.141797,-76609.549800
159.453516,22502.260637,2960.823768,-79520.712692
159.456081,-24870.919651,14656.077652,-71246.881314
159.458647,18209.066173,3701.029710,-79827.150892
159.461212,30200.402434,4441.235652,-80746.465489
159.463777,-9770.718434,10362.883188,-74311.263306
159.466342,-17764.942608,9770.718434,-72779.072310
159.468908,33457.308578,5033.400406,-79367.493593
159.471473,-10510.924376,9326.594869,-77528.864398
159.474038,-740.205942,8734.430116,-74158.044206
159.476604,27683.702231,6365.771101,-77528.864398
159.479169,-2812.782580,8734.430116,-76915.987999
159.481734,-7994.224174,7698.141797,-75690.235202
159.484299,19689.478057,6069.688724,-77222.426198
159.486865,2812.782580,10658.965565,-75690.235202
159.489430,-7254.018232,7105.977043,-77222.426198
159.491995,3108.864956,8142.265362,-76456.330700
159.494560,26351.331535,8290.306550,-74924.139704
159.497126,-13915.871710,12731.542202,-74770.920605
159.499693,-4441.235652,3552.988522,-76609.549800
159.502260,20577.725188,3701.029710,-79980.369991
159.504828,-1924.535449,15692.365970,-74464.482406
159.507395,-19245.354492,7254.018232,-74464.482406
159.509963,18357.107362,6513.812290,-79673.931792
159.512530,-49001.633360,12731.542202,-72012.976812
159.515097,-19837.519246,9474.636058,-74924.139704
159.517665,30792.567187,3849.070898,-78907.836294
159.520232,-17468.860231,11251.130318,-73698.386908
159.522799,-17912.983796,8586.388927,-73698.386908
159.525367,11991.336260,6661.853478,-77835.302597
159.527934,-6809.894666,6957.935855,-77069.207099
159.530501,-18801.230927,10214.842000,-74311.263306
159.533069,11399.171507,7105.977043,-77375.645298
159.535636,-2368.659014,3997.112087,-78294.959896
159.538203,-25611.125593,13323.706956,-73238.729609
159.540771,2072.576638,10510.924376,-74924.139704
159.543338,5033.400406,4293.194464,-77988.521696
159.545906,-13323.706956,9030.512492,-76456.330700
159.548473,-11843.295072,10362.883188,-75230.577904
159.551040,-6661.853478,6957.935855,-75537.016103
159.553608,2368.659014,6069.688724,-78754.617194
159.556175,-4589.276840,9918.759623,-76609.549800
159.558742,-38490.708984,11399.171507,-71553.319513
159.561310,53590.910201,3552.988522,-81512.560987
159.563877,-16876.695478,6661.853478,-73391.948708
159.566444,-16728.654289,12139.377449,-71093.662214
159.569012,34641.638086,3552.988522,-79061.055394
159.571579,1924.535449,9178.553681,-77222.426198
159.574146,-22798.343014,12879.583391,-72625.853210
159.576714,28127.825796,740.205942,-78907.836294
159.579281,-4145.153275,11103.089130,-75230.577904
159.581849,-12287.418637,8586.388927,-74924.139704
159.584416,33309.267390,4885.359217,-79367.493593
159.586983,-2220.617826,11695.253884,-75690.235202
159.589551,-13915.871710,9474.636058,-74004.825107
159.592118,3108.864956,4441.235652,-76609.549800
159.594685,23094.425390,7105.977043,-78754.617194
159.597253,-9178.553681,11991.336260,-72779.072310
159.599820,1184.329507,7402.059420,-76762.768900
159.602389,7402.059420,6365.771101,-78448.178995
159.604958,20133.601622,11103.089130,-76456.330700
159.607527,-22946.384202,9622.677246,-72932.291410
159.610096,13915.871710,4145.153275,-78448.178995
159.612665,22502.260637,5921.647536,-79673.931792
159.615234,-17616.901420,17024.736666,-72779.072310
159.617802,-32272.979071,7105.977043,-72012.976812
159.620371,21465.972318,9326.594869,-78907.836294
159.622940,-39378.956114,10362.883188,-73851.606007
159.625509,5921.647536,5181.441594,-77988.521696
159.628078,15544.324782,9030.512492,-76149.892501
159.630647,-27831.743419,10807.006753,-73391.948708
159.633216,-1628.453072,4589.276840,-76915.987999
159.635785,8734.430116,9474.636058,-78294.959896
159.638354,-14656.077652,9326.594869,-75537.016103
159.640923,-8734.430116,4441.235652,-76915.987999
159.643492,2220.617826,8586.388927,-77375.645298
159.646061,-6957.935855,7254.018232,-77222.426198
159.648629,-22502.260637,9770.718434,-74770.920605
159.651198,13175.665768,5329.482782,-77682.083497
159.653767,-3997.112087,8438.347739,-77069.207099
159.656336,-14063.912898,7254.018232,-77222.426198
159.658905,-11547.212695,8438.347739,-75230.577904
159.661474,-740.205942,7994.224174,-75996.673402
159.664043,-4885.359217,5773.606348,-77682.083497
159.666612,17764.942608,7550.100608,-78294.959896
159.669181,-46040.809592,15248.242405,-69408.252119
159.671750,47225.139100,4145.153275,-79827.150892
159.674319,-3849.070898,5625.565159,-76762.768900
159.676887,-1924.535449,12139.377449,-72932.291410
159.679456,35529.885216,4737.318029,-79520.712692
159.682025,-20429.683999,11695.253884,-73085.510509
159.684596,-2664.741391,10214.842000,-76456.330700
159.687166,28868.031738,1332.370696,-78448.178995
159.689737,-19097.313304,13175.665768,-73085.510509
159.692307,-12139.377449,7994.224174,-75690.235202
159.694878,27535.661042,4589.276840,-78141.740796
159.697448,6365.771101,11695.253884,-74924.139704
159.700019,-9770.718434,10214.842000,-74158.044206
159.702589,10066.800811,3552.988522,-77988.521696
159.705160,13767.830521,8438.347739,-77375.645298
159.707731,-5181.441594,11547.212695,-73698.386908
159.710301,1628.453072,7105.977043,-75230.577904
159.712872,7254.018232,7254.018232,-79367.493593
159.715442,22058.137072,9178.553681,-76915.987999
159.718013,8438.347739,12435.459826,-75537.016103
159.720583,-18653.189738,7254.018232,-74464.482406
159.723154,6661.853478,2664.741391,-79061.055394
159.725724,17024.736666,10510.924376,-77375.645298
159.728295,-39082.873738,8142.265362,-71859.757712
159.730865,21910.095883,9178.553681,-78601.398095
159.733436,-31532.773129,9326.594869,-75843.454302
159.736006,-6217.729913,6809.894666,-76915.987999
159.738577,24278.754898,5625.565159,-77835.302597
159.741147,-26647.413912,11991.336260,-73851.606007
159.743718,-16580.613101,10066.800811,-74617.701505
159.746288,1184.329507,8142.265362,-76915.987999
159.748859,1776.494261,7402.059420,-77528.864398
159.751429,-10510.924376,7254.018232,-75843.454302
159.754000,-10362.883188,10807.006753,-75077.358804
159.756570,8142.265362,6069.688724,-78294.959896
159.759141,-19985.560434,7698.141797,-74311.263306
159.761711,-2220.617826,8586.388927,-75996.673402
159.764282,5773.606348,8438.347739,-76915.987999
159.766853,-10510.924376,6513.812290,-76915.987999
159.769423,-7105.977043,6217.729913,-76303.111601
159.771994,296.082377,10658.965565,-74617.701505
159.774564,-30200.402434,8734.430116,-76149.892501
159.777135,28571.949361,4293.194464,-77988.521696
159.779705,-15100.201217,8734.430116,-77222.426198
159.782276,17468.860231,9622.677246,-75230.577904
159.784846,16432.571912,5773.606348,-78448.178995
159.787382,-13767.830521,12139.377449,-73391.948708
159.789917,17024.736666,2960.823768,-77988.521696
159.792453,36270.091158,6069.688724,-79673.931792
159.794989,-6217.729913,9178.553681,-75690.235202
159.797524,-15100.201217,7550.100608,-72932.291410
159.800060,25907.207970,9622.677246,-77375.645298
159.802596,-5921.647536,7254.018232,-76149.892501
159.805131,-592.164754,7698.141797,-75843.454302
159.807667,14211.954086,7994.224174,-75690.235202
159.810203,10955.047942,9030.512492,-76915.987999
159.812738,-1036.288319,7550.100608,-75843.454302
159.815274,5033.400406,6661.853478,-76303.111601
159.817809,6661.853478,6513.812290,-76609.549800
159.820345,-888.247130,10362.883188,-76915.987999
159.822881,22650.301825,7550.100608,-77682.083497
159.825416,-20133.601622,8438.347739,-73085.510509
159.827952,13323.706956,7698.141797,-76915.987999
159.830488,20281.642811,2072.576638,-80440.027290
159.833023,-19689.478057,17024.736666,-72779.072310
159.835559,5625.565159,6365.771101,-75690.235202
159.838095,-17764.942608,5033.400406,-77835.302597
159.840630,-34641.638086,11251.130318,-73851.606007
159.843166,13323.706956,6513.812290,-78448.178995
159.845701,10955.047942,7698.141797,-75537.016103
159.848237,-31384.731941,9474.636058,-73238.729609
159.850773,3552.988522,7550.100608,-78601.398095
159.853308,9474.636058,6069.688724,-77988.521696
159.855844,-20429.683999,10214.842000,-74158.044206
159.858380,-6661.853478,7994.224174,-75690.235202
159.860915,7846.182985,7105.977043,-77682.083497
159.863451,-11843.295072,8438.347739,-76456.330700
159.865987,-20133.601622,9622.677246,-73391.948708
159.868522,-5181.441594,8142.265362,-75077.358804
159.871058,6069.688724,8290.306550,-76609.549800
159.873593,-18505.148550,9770.718434,-76762.768900
159.876129,-5033.400406,5773.606348,-74770.920605
159.878665,6365.771101,9326.594869,-76149.892501
159.881200,-33457.308578,10214.842000,-75230.577904
159.883736,38194.626607,3108.864956,-79061.055394
159.886272,-28423.908173,10510.924376,-74004.825107
159.888815,24574.837274,9770.718434,-74770.920605
159.891358,16580.613101,6069.688724,-77835.302597
159.893901,-8734.430116,12287.418637,-74311.263306
159.896445,5921.647536,3552.988522,-77682.083497
159.898988,28127.825796,7846.182985,-78601.398095
159.901531,-11695.253884,12879.583391,-73698.386908
159.904075,-4145.153275,4885.359217,-76762.768900
159.906618,17912.983796,9622.677246,-76762.768900
159.909161,-7402.059420,7994.224174,-76915.987999
159.911705,8438.347739,6809.894666,-76149.892501
159.914248,14359.995275,8586.388927,-76915.987999
159.916791,4145.153275,7254.018232,-77375.645298
159.919334,6217.729913,7698.141797,-75537.016103
159.921878,148.041188,7846.182985,-75996.673402
159.924421,3701.029710,7550.100608,-75996.673402
159.926964,4885.359217,9622.677246,-76762.768900
159.929508,20873.807564,6069.688724,-77222.426198
159.932051,-2664.741391,13471.748144,-73698.386908
159.934594,-11843.295072,7994.224174,-75077.358804
159.937137,21465.972318,0.000000,-80133.589091
159.939681,3108.864956,15100.201217,-75690.235202
159.942224,-40859.367998,8438.347739,-71859.757712
159.944767,11843.295072,9326.594869,-76456.330700
159.947311,-23390.507767,8734.430116,-77222.426198
159.949854,-3701.029710,7550.100608,-75843.454302
159.952397,19245.354492,5625.565159,-78601.398095
159.954940,-8586.388927,9622.677246,-76149.892501
159.957484,-14359.995275,8438.347739,-75843.454302
159.960027,2812.782580,7994.224174,-76456.330700
159.962570,-8882.471304,7402.059420,-75996.673402
159.965114,-740.205942,7550.100608,-76149.892501
159.967657,-9770.718434,8438.347739,-76762.768900
159.970200,-8438.347739,6365.771101,-76609.549800
159.972744,592.164754,8438.347739,-75537.016103
159.975287,-7550.100608,7698.141797,-77222.426198
159.977830,-12879.583391,7550.100608,-76149.892501
159.980373,1332.370696,8438.347739,-76149.892501
159.982917,-18801.230927,9918.759623,-74004.825107
159.985460,296.082377,5773.606348,-76609.549800
159.988003,6513.812290,8586.388927,-77988.521696
159.990553,-39526.997303,13915.871710,-70021.128517
159.993103,36270.091158,6513.812290,-77069.207099
159.995653,7105.977043,5181.441594,-78141.740796
159.998203,-6661.853478,12435.459826,-74158.044206
160.000753,27683.702231,3256.906145,-78294.959896
160.003302,-1628.453072,9770.718434,-75230.577904
160.005852,-8290.306550,12139.377449,-73698.386908
160.008402,21762.054695,148.041188,-79673.931792
160.010952,-8586.388927,12287.418637,-73851.606007
160.013502,-5921.647536,8734.430116,-74770.920605
160.016052,21021.848753,4441.235652,-78907.836294
160.018602,2516.700203,10807.006753,-75996.673402
160.021151,6069.688724,7846.182985,-76303.111601
160.023701,11547.212695,5773.606348,-78294.959896
160.026251,-4589.276840,8882.471304,-75230.577904
160.028801,8882.471304,8142.265362,-75690.235202
160.031351,-740.205942,8142.265362,-76609.549800
160.033901,26351.331535,8734.430116,-77988.521696
160.036451,-18061.024985,9770.718434,-74464.482406
160.039000,3108.864956,6809.894666,-76303.111601
160.041550,27979.784608,3108.864956,-79980.369991
160.044100,16728.654289,12731.542202,-77835.302597
160.046650,-31976.896694,8142.265362,-71246.881314
160.049200,6069.688724,8586.388927,-78294.959896
160.051750,-30496.484810,10214.842000,-75690.235202
160.054300,6661.853478,5625.565159,-78448.178995
160.056849,5033.400406,6809.894666,-74924.139704
160.059399,-22946.384202,9770.718434,-73851.606007
160.061949,5033.400406,5773.606348,-78601.398095
160.064499,-1924.535449,6365.771101,-77222.426198
160.067049,-15988.448347,11103.089130,-73851.606007
160.069599,-888.247130,8142.265362,-75230.577904
160.072149,-6513.812290,7994.224174,-77835.302597
160.074698,-2664.741391,7254.018232,-76762.768900
160.077248,-5773.606348,8586.388927,-75383.797003
160.079798,-9178.553681,6661.853478,-75230.577904
160.082348,-6513.812290,9770.718434,-77222.426198
160.084898,-1480.411884,6957.935855,-78448.178995
160.087448,-21910.095883,7698.141797,-72779.072310
160.089998,9030.512492,8438.347739,-77682.083497
160.092553,28275.866984,5181.441594,-80746.465489
160.095108,-50185.962868,13767.830521,-69408.252119
160.097663,37898.544230,4589.276840,-79673.931792
160.100219,4589.276840,4293.194464,-76456.330700
160.102774,-1776.494261,9770.718434,-75690.235202
160.105329,22206.178260,7846.182985,-77988.521696
160.107885,-13175.665768,8438.347739,-74617.701505
160.110440,11103.089130,7846.182985,-76456.330700
160.112995,14359.995275,5477.523971,-77375.645298
160.115550,-12139.377449,9178.553681,-75230.577904
160.118106,444.123565,8882.471304,-75690.235202
160.120661,18505.148550,6069.688724,-77988.521696
160.123216,-2960.823768,8882.471304,-75996.673402
160.125772,10214.842000,8586.388927,-76762.768900
160.128327,16876.695478,7254.018232,-77069.207099
160.130882,-11991.336260,8438.347739,-74770.920605
160.133438,7994.224174,8734.430116,-75230.577904
160.135993,8882.471304,7846.182985,-77069.207099
160.138548,22650.301825,8882.471304,-77069.207099
160.141103,-19541.436869,11103.089130,-74004.825107
160.143659,-19541.436869,8586.388927,-73545.167808
160.146214,7698.141797,888.247130,-79520.712692
160.148769,20429.683999,10658.965565,-77682.083497
160.151325,-33161.226202,6513.812290,-71859.757712
160.153880,10214.842000,10066.800811,-77069.207099
160.156435,-30644.525999,10510.924376,-75843.454302
160.158990,4441.235652,4737.318029,-77222.426198
160.161546,9474.636058,8290.306550,-75690.235202
160.164101,-25611.125593,10066.800811,-73391.948708
160.166656,2960.823768,4737.318029,-79061.055394
160.169212,7846.182985,6365.771101,-77988.521696
160.171767,-3108.864956,9770.718434,-75077.358804
160.174322,-20577.725188,6809.894666,-75690.235202
160.176877,296.082377,7698.141797,-76456.330700
160.179433,6661.853478,6069.688724,-79061.055394
160.181988,-18801.230927,9770.718434,-73238.729609
160.184543,-6957.935855,8290.306550,-74617.701505
160.187099,-740.205942,7698.141797,-78294.959896
160.189654,444.123565,6069.688724,-77682.083497
160.192209,-24130.713709,11547.212695,-73391.948708
160.194767,-27979.784608,10066.800811,-74770.920605
160.197326,49593.798114,296.082377,-80746.465489
160.199885,-37898.544230,12731.542202,-72932.291410
160.202444,22206.178260,9770.718434,-74770.920605
160.205002,24574.837274,3256.906145,-79214.274493
160.207561,-17320.819043,14063.912898,-73391.948708
160.210120,23834.631332,3552.988522,-78448.178995
160.212679,12435.459826,6365.771101,-77682.083497
160.215238,-9622.677246,13619.789333,-72779.072310
160.217797,-6217.729913,8290.306550,-76149.892501
160.220356,8438.347739,6513.812290,-76609.549800
160.222915,-1036.288319,9030.512492,-76456.330700
160.225473,5033.400406,5181.441594,-75537.016103
160.228032,25463.084405,9918.759623,-76456.330700
160.230591,-15100.201217,10066.800811,-73851.606007
160.233150,9770.718434,6365.771101,-78294.959896
160.235709,11103.089130,7846.182985,-77375.645298
160.238268,-6809.894666,9326.594869,-74311.263306
160.240827,15396.283594,7105.977043,-76456.330700
160.243386,-16136.489536,7105.977043,-74311.263306
160.245944,24278.754898,9030.512492,-77682.083497
160.248503,5625.565159,7402.059420,-76456.330700
160.251062,-24574.837274,13619.789333,-72625.853210
160.253621,25167.002028,2516.700203,-77988.521696
160.256180,-36566.173535,7698.141797,-75690.235202
160.258739,-17616.901420,10807.006753,-74617.701505
160.261298,18357.107362,2664.741391,-80746.465489
160.263857,-36566.173535,11695.253884,-72779.072310
160.266416,9474.636058,6809.894666,-72932.291410
160.268974,17468.860231,5181.441594,-79214.274493
160.271533,-3849.070898,8142.265362,-76456.330700
160.274092,-22206.178260,12139.377449,-72319.415011
160.276651,-1924.535449,7994.224174,-75230.577904
160.279210,9770.718434,5181.441594,-77988.521696
160.281769,-11695.253884,8734.430116,-76303.111601
160.284328,-15396.283594,10362.883188,-74617.701505
160.286887,-444.123565,7698.141797,-74311.263306
160.289445,-7105.977043,7550.100608,-77069.207099
160.292004,-9178.553681,6513.812290,-78601.398095
160.294563,-9918.759623,11399.171507,-74004.825107
160.297125,-13915.871710,8734.430116,-75383.797003
160.299688,24574.837274,3552.988522,-79980.369991
160.302250,-48557.509795,15248.242405,-70480.785816
160.304812,48261.427418,5181.441594,-78601.398095
160.307374,-4589.276840,5773.606348,-75996.673402
160.309936,0.000000,12583.501014,-74617.701505
160.312499,30348.443622,4885.359217,-78907.836294
160.315061,-18357.107362,11251.130318,-73851.606007
160.317623,-14656.077652,13767.830521,-72319.415011
160.320185,11547.212695,1776.494261,-77988.521696
160.322747,5773.606348,8586.388927,-76456.330700
160.325310,-9622.677246,8438.347739,-75690.235202
160.327872,15396.283594,6513.812290,-76609.549800
160.330434,12435.459826,9030.512492,-76456.330700
160.332996,-6661.853478,8142.265362,-75230.577904
160.335558,16728.654289,6217.729913,-78601.398095
160.338121,1480.411884,8438.347739,-75690.235202
160.340683,-5921.647536,9326.594869,-75383.797003
160.343245,15396.283594,9030.512492,-76609.549800
160.345807,-7402.059420,5625.565159,-75077.358804
160.348369,19245.354492,7994.224174,-78601.398095
160.350932,2960.823768,8438.347739,-75230.577904
160.353494,-22058.137072,12879.583391,-74617.701505
160.356056,23686.590144,2664.741391,-78754.617194
160.358618,-36862.255912,7254.018232,-75537.016103
160.361180,-11695.253884,11103.089130,-74464.482406
160.363743,12879.583391,2072.576638,-82431.875585
160.366305,-37158.338288,11547.212695,-74464.482406
160.368867,-31088.649564,13175.665768,-71859.757712
160.371429,-2368.659014,5329.482782,-77835.302597
160.373991,7550.100608,5773.606348,-79061.055394
160.376554,-9770.718434,10658.965565,-75383.797003
160.379116,-6661.853478,9178.553681,-74770.920605
160.381678,-5033.400406,7402.059420,-76762.768900
160.384240,-7402.059420,7105.977043,-77069.207099
160.386802,-5329.482782,7550.100608,-75537.016103
160.389365,-10658.965565,8586.388927,-73391.948708
160.391927,-10362.883188,10658.965565,-76149.892501
160.394489,296.082377,6661.853478,-77835.302597
160.397051,740.205942,7254.018232,-76149.892501
160.399616,-41155.450375,11251.130318,-74770.920605
160.402182,33309.267390,3701.029710,-79061.055394
160.404747,-11991.336260,6661.853478,-78294.959896
160.407312,11547.212695,9770.718434,-73698.386908
160.409877,20133.601622,5033.400406,-78907.836294
160.412442,-15100.201217,10658.965565,-74464.482406
160.415007,12287.418637,3997.112087,-78141.740796
160.417572,29756.278868,6809.894666,-78448.178995
160.420137,1628.453072,8142.265362,-75996.673402
160.422702,-16728.654289,8734.430116,-74464.482406
160.425268,14804.118840,9326.594869,-77682.083497
160.427833,-1776.494261,4885.359217,-77988.521696
160.430398,7550.100608,9474.636058,-74924.139704
160.432963,22354.219448,7698.141797,-76609.549800
160.435528,-10658.965565,9326.594869,-75230.577904
160.438093,7846.182985,7254.018232,-75537.016103
160.440658,7402.059420,7402.059420,-77069.207099
160.443223,12731.542202,9918.759623,-77222.426198
160.445789,8734.430116,6365.771101,-74617.701505
160.448354,20429.683999,10807.006753,-78448.178995
160.450919,-21910.095883,9770.718434,-73851.606007
160.453484,-9326.594869,6069.688724,-76149.892501
160.456049,34049.473332,3849.070898,-80133.589091
160.458614,-42339.779882,8734.430116,-72625.853210
160.461179,14656.077652,11103.089130,-75537.016103
160.463744,-22650.301825,7846.182985,-77682.083497
160.466309,-9918.759623,8586.388927,-76303.111601
160.468875,20133.601622,6661.853478,-75843.454302
160.471440,-4293.194464,9622.677246,-75996.673402
160.474005,-20873.807564,8438.347739,-74311.263306
160.476570,-296.082377,7402.059420,-78754.617194
160.479135,1184.329507,7105.977043,-75690.235202
160.481700,-6809.894666,10510.924376,-74004.825107
160.484265,-2368.659014,6809.894666,-78448.178995
160.486830,-18209.066173,5921.647536,-75843.454302
160.489396,-4885.359217,10510.924376,-75077.358804
160.491961,-4589.276840,6957.935855,-75996.673402
160.494526,7402.059420,4885.359217,-78294.959896
160.497091,-16876.695478,11399.171507,-74617.701505
160.499656,-13175.665768,8586.388927,-75077.358804
160.502222,27535.661042,3997.112087,-79367.493593
160.504789,-46929.056723,14804.118840,-70480.785816
160.507355,40119.162056,4737.318029,-79214.274493
160.509922,4885.359217,5773.606348,-75843.454302
160.512488,-1184.329507,12731.542202,-74158.044206
160.515055,21910.095883,5625.565159,-78907.836294
160.517621,-13915.871710,11251.130318,-73851.606007
160.520187,-6365.771101,10955.047942,-73851.606007
160.522754,11251.130318,1184.329507,-78141.740796
160.525320,-296.082377,10807.006753,-76303.111601
160.527887,-4885.359217,7698.141797,-75537.016103
160.530453,17468.860231,5921.647536,-77375.645298
160.533020,8438.347739,11251.130318,-75537.016103
160.535586,-592.164754,7846.182985,-74311.263306
160.538152,11843.295072,5921.647536,-78907.836294
160.540719,-1036.288319,10955.047942,-74770.920605
160.543285,1776.494261,9770.718434,-74464.482406
160.545852,31532.773129,4145.153275,-77988.521696
160.548418,-2960.823768,13471.748144,-76149.892501
160.550985,-24278.754898,10066.800811,-74158.044206
160.553551,14063.912898,148.041188,-78601.398095
160.556117,22058.137072,13027.624579,-77222.426198
160.558684,-35381.844028,7550.100608,-71859.757712
160.561250,17616.901420,8586.388927,-77835.302597
160.563817,-36270.091158,11991.336260,-73851.606007
160.566383,3997.112087,7254.018232,-79214.274493
160.568949,21021.848753,5329.482782,-78448.178995
160.571516,-16876.695478,9178.553681,-73698.386908
160.574082,-10510.924376,9326.594869,-75996.673402
160.576649,2516.700203,5329.482782,-78294.959896
160.579215,-5477.523971,8142.265362,-76762.768900
160.581782,-7698.141797,10362.883188,-73238.729609
160.584348,-2664.741391,7402.059420,-76762.768900
160.586914,-14952.160028,4589.276840,-77835.302597
160.589481,-3701.029710,8882.471304,-75537.016103
160.592047,-9622.677246,7994.224174,-74924.139704
160.594614,3997.112087,7402.059420,-77835.302597
160.597180,-15988.448347,10658.965565,-75230.577904
160.599747,-9178.553681,7402.059420,-76456.330700
160.602313,21317.931130,3552.988522,-79061.055394
160.604881,-48113.386230,14952.160028,-70480.785816
160.607449,46040.809592,4145.153275,-79827.150892
160.610016,148.041188,5181.441594,-76915.987999
160.612584,-3404.947333,12731.542202,-73545.167808
160.615152,29016.072926,4441.235652,-80593.246390
160.617720,-17172.777854,10510.924376,-73391.948708
160.620288,-7402.059420,12287.418637,-72625.853210
160.622856,13323.706956,2368.659014,-78907.836294
160.625423,1628.453072,9770.718434,-75996.673402
160.627991,-5181.441594,9770.718434,-76303.111601
160.630559,3849.070898,4441.235652,-76609.549800
160.633127,23390.507767,10510.924376,-76609.549800
160.635695,740.205942,9474.636058,-75383.797003
160.638262,-7846.182985,5329.482782,-76149.892501
160.640830,12139.377449,7698.141797,-77222.426198
160.643398,6809.894666,9622.677246,-75383.797003
160.645966,7846.182985,5773.606348,-75996.673402
160.648534,18357.107362,11991.336260,-77682.083497
160.651102,-16284.530724,9178.553681,-74770.920605
160.653669,-21614.013506,2664.741391,-76609.549800
160.656237,42487.821071,6957.935855,-79061.055394
160.658805,-42635.862259,7550.100608,-72932.291410
160.661373,11695.253884,11103.089130,-75996.673402
160.663941,-26499.372724,8142.265362,-77222.426198
160.666508,-3701.029710,8734.430116,-76762.768900
160.669076,18801.230927,6217.729913,-77988.521696
160.671644,-16728.654289,9918.759623,-73698.386908
160.674212,-8734.430116,6809.894666,-76456.330700
160.676780,-592.164754,7105.977043,-77375.645298
160.679348,-6957.935855,9622.677246,-74464.482406
160.681915,-3108.864956,8438.347739,-75537.016103
160.684483,-5921.647536,7402.059420,-77682.083497
160.687051,-12435.459826,6661.853478,-76915.987999
160.689619,-6217.729913,9622.677246,-75383.797003
160.692187,-13175.665768,6809.894666,-74924.139704
160.694754,-4737.318029,6661.853478,-76915.987999
160.697322,7994.224174,8438.347739,-78141.740796
160.699890,-44708.438897,9918.759623,-74770.920605
160.702458,33013.185013,3701.029710,-77988.521696
160.705026,-12139.377449,6661.853478,-78448.178995
160.707595,11547.212695,9326.594869,-75383.797003
160.710164,23982.672521,5329.482782,-78601.398095
160.712733,-18357.107362,13323.706956,-74464.482406
160.715302,19097.313304,1184.329507,-79520.712692
160.717871,18949.272115,8882.471304,-78294.959896
160.720440,740.205942,11103.089130,-74464.482406
160.723009,-8142.265362,7254.018232,-74158.044206
160.725579,5773.606348,10362.883188,-76915.987999
160.728148,6365.771101,6069.688724,-78141.740796
160.730717,5477.523971,10066.800811,-75230.577904
160.733286,6809.894666,6957.935855,-74617.701505
160.735855,12879.583391,7402.059420,-78141.740796
160.738424,888.247130,10362.883188,-75690.235202
160.740993,-5773.606348,7402.059420,-75537.016103
160.743562,31828.855506,7105.977043,-76915.987999
160.746131,-5033.400406,12287.418637,-75537.016103
160.748700,-13619.789333,6217.729913,-76609.549800
160.751270,24574.837274,2664.741391,-78601.398095
160.753839,-11695.253884,17764.942608,-73238.729609
160.756408,-2368.659014,5477.523971,-75383.797003
160.758977,-3701.029710,5477.523971,-77835.302597
160.761546,-33161.226202,13175.665768,-73391.948708
160.764115,14359.995275,4145.153275,-78907.836294
160.766684,-18357.107362,9178.553681,-75996.673402
160.769253,-17912.983796,10362.883188,-73698.386908
160.771822,-1184.329507,5033.400406,-76456.330700
160.774392,-2368.659014,7402.059420,-77528.864398
160.776961,-11991.336260,9622.677246,-75690.235202
160.779530,-2368.659014,6809.894666,-76303.111601
160.782099,1184.329507,9030.512492,-75383.797003
160.784668,-15692.365970,8734.430116,-76915.987999
160.787237,-13619.789333,8290.306550,-76149.892501
160.789807,-12879.583391,8142.265362,-74924.139704
160.792376,10066.800811,6957.935855,-77528.864398
160.794946,-5625.565159,9770.718434,-78294.959896
160.797516,-46484.933158,11399.171507,-73698.386908
160.800085,31976.896694,4293.194464,-78601.398095
160.802655,-10510.924376,6957.935855,-78141.740796
160.805225,15840.407159,10807.006753,-75077.358804
160.807794,21169.889941,5181.441594,-78141.740796
160.810364,-16728.654289,13915.871710,-73238.729609
160.812934,18209.066173,3701.029710,-78907.836294
160.815503,20577.725188,7105.977043,-77988.521696
160.818073,-9178.553681,13175.665768,-72012.976812
160.820643,296.082377,4589.276840,-74464.482406
160.823212,8734.430116,8142.265362,-77835.302597
160.825782,2812.782580,5181.441594,-78141.740796
160.828351,-4145.153275,10658.965565,-73391.948708
160.830921,28571.949361,6069.688724,-77375.645298
160.833491,1776.494261,9030.512492,-76303.111601
160.836060,-10955.047942,9326.594869,-76303.111601
160.838630,10658.965565,6365.771101,-76303.111601
160.841200,32865.143825,8290.306550,-77682.083497
160.843769,-26499.372724,11695.253884,-73391.948708
160.846339,-20133.601622,8142.265362,-73238.729609
160.848909,16580.613101,-1332.370696,-80593.246390
160.851478,5477.523971,14952.160028,-75996.673402
160.854048,-18949.272115,7846.182985,-73085.510509
160.856618,13027.624579,6661.853478,-77835.302597
160.859187,-40415.244433,13323.706956,-74004.825107
160.861757,9918.759623,5329.482782,-77835.302597
160.864327,-296.082377,7994.224174,-76456.330700
160.866896,-22650.301825,10362.883188,-72472.634111
160.869466,7994.224174,5773.606348,-78448.178995
160.872036,5477.523971,6809.894666,-78294.959896
160.874605,-3256.906145,9918.759623,-76762.768900
160.877175,-13175.665768,7105.977043,-74617.701505
160.879745,-1036.288319,10510.924376,-75996.673402
160.882314,-6513.812290,6365.771101,-76915.987999
160.884884,-13619.789333,9030.512492,-76303.111601
160.887453,-13915.871710,7698.141797,-74924.139704
160.890023,10362.883188,6365.771101,-77682.083497
160.892593,-6957.935855,8586.388927,-76915.987999
160.895163,-39230.914926,11547.212695,-73851.606007
160.897733,9030.512492,5625.565159,-76609.549800
160.900304,19245.354492,4737.318029,-79980.369991
160.902874,-4737.318029,11991.336260,-72932.291410
160.905444,22354.219448,6365.771101,-77528.864398
160.908014,-6661.853478,12879.583391,-74924.139704
160.910584,3997.112087,5921.647536,-77835.302597
160.913154,22206.178260,5181.441594,-78907.836294
160.915724,-740.205942,12583.501014,-73391.948708
160.918294,-1036.288319,5329.482782,-75996.673402
160.920865,-2516.700203,8734.430116,-76609.549800
160.923435,8290.306550,5329.482782,-77988.521696
160.926005,14508.036463,10658.965565,-76303.111601
160.928575,-148.041188,8290.306550,-75230.577904
160.931145,3256.906145,7846.182985,-76609.549800
160.933715,10510.924376,7550.100608,-78294.959896
160.936285,3701.029710,8586.388927,-74617.701505
160.938855,21317.931130,6365.771101,-76609.549800
160.941426,10362.883188,13323.706956,-76915.987999
160.943996,-21910.095883,8586.388927,-74004.825107
160.946566,-29164.114115,5033.400406,-75077.358804
160.949136,41007.409187,3849.070898,-80286.808190
160.951706,-41599.573940,7550.100608,-75077.358804
160.954276,8438.347739,9326.594869,-75843.454302
160.956846,-13767.830521,7846.182985,-78601.398095
160.959416,-19097.313304,11695.253884,-74004.825107
160.961987,17912.983796,5625.565159,-78601.398095
160.964557,-14211.954086,9030.512492,-74004.825107
160.967127,-7402.059420,8882.471304,-75843.454302
160.969697,-2812.782580,6957.935855,-76915.987999
160.972267,-9622.677246,7402.059420,-75537.016103
160.974837,-6957.935855,7105.977043,-76303.111601
160.977407,-1480.411884,7402.059420,-76609.549800
160.979977,-11547.212695,7846.182985,-77069.207099
160.982548,-19541.436869,10362.883188,-74158.044206
160.985118,12435.459826,4885.359217,-77222.426198
160.987688,-13027.624579,11695.253884,-74311.263306
160.990258,-7550.100608,7846.182985,-77528.864398
160.992828,-7254.018232,6957.935855,-77069.207099
160.995398,-47965.345042,13619.789333,-70021.128517
160.997967,43079.985824,5773.606348,-79214.274493
161.000537,-296.082377,5773.606348,-75843.454302
161.003106,5181.441594,10658.965565,-74617.701505
161.005676,18505.148550,6069.688724,-79061.055394
161.008246,-13619.789333,10658.965565,-73851.606007
161.010815,13323.706956,7550.100608,-76915.987999
161.013385,15100.201217,3701.029710,-77222.426198
161.015954,-5625.565159,10510.924376,-74770.920605
161.018524,296.082377,9622.677246,-75996.673402
161.021094,10066.800811,7550.100608,-77222.426198
161.023663,6661.853478,9622.677246,-75383.797003
161.026233,12287.418637,6809.894666,-75996.673402
161.028802,1924.535449,7254.018232,-76762.768900
161.031372,148.041188,9326.594869,-75996.673402
161.033941,26647.413912,6661.853478,-74770.920605
161.036511,-10066.800811,9622.677246,-76149.892501
161.039081,-2072.576638,7105.977043,-76915.987999
161.041650,24870.919651,3997.112087,-80133.589091
161.044220,-25611.125593,17024.736666,-71859.757712
161.046789,-26795.455100,9326.594869,-72166.195912
161.049359,14063.912898,7105.977043,-79214.274493
161.051929,-35677.926404,10658.965565,-73391.948708
161.054498,6809.894666,6661.853478,-78601.398095
161.057068,-1924.535449,7254.018232,-76456.330700
161.059637,-15840.407159,10658.965565,-74617.701505
161.062207,296.082377,5033.400406,-76609.549800
161.064777,-1628.453072,8438.347739,-76915.987999
161.067346,-10214.842000,8734.430116,-76609.549800
161.069916,-9326.594869,7105.977043,-75996.673402
161.072485,-4589.276840,9770.718434,-74924.139704
161.075055,-5033.400406,6957.935855,-77222.426198
161.077625,-15692.365970,8290.306550,-75230.577904
161.080194,-3256.906145,8586.388927,-75537.016103
161.082764,-5181.441594,9326.594869,-74617.701505
161.085333,4885.359217,6365.771101,-78907.836294
161.087903,-35381.844028,10362.883188,-75383.797003
161.090472,-444.123565,9326.594869,-74617.701505
161.093042,19097.313304,1924.535449,-80133.589091
161.095612,3849.070898,10214.842000,-74617.701505
161.098181,17764.942608,11103.089130,-76609.549800
161.100750,3256.906145,8586.388927,-76149.892501
161.103319,-10955.047942,7402.059420,-76456.330700
161.105888,20429.683999,7550.100608,-78141.740796
161.108457,12879.583391,6217.729913,-76915.987999
161.111026,-7550.100608,9178.553681,-73391.948708
161.113595,-3552.988522,10658.965565,-75383.797003
161.116164,17764.942608,4145.153275,-78907.836294
161.118733,6217.729913,11399.171507,-74924.139704
161.121303,-1480.411884,9918.759623,-74924.139704
161.123872,-2812.782580,5181.441594,-76456.330700
161.126441,15100.201217,8438.347739,-77069.207099
161.129010,19541.436869,9178.553681,-75537.016103
161.131579,-18357.107362,9326.594869,-73545.167808
161.134148,14063.912898,6661.853478,-78601.398095
161.136717,13027.624579,4441.235652,-79214.274493
161.139286,-18357.107362,17024.736666,-71553.319513
161.141855,3997.112087,4589.276840,-77069.207099
161.144424,-9622.677246,4441.235652,-78448.178995
161.146993,-39082.873738,10066.800811,-75077.358804
161.149563,9918.759623,7698.141797,-77835.302597
161.152132,-3108.864956,6365.771101,-76149.892501
161.154701,-17912.983796,10214.842000,-74004.825107
161.157270,1628.453072,7254.018232,-78141.740796
161.159839,444.123565,6809.894666,-77375.645298
161.162408,-6661.853478,10066.800811,-76762.768900
161.164977,-8734.430116,7105.977043,-75537.016103
161.167546,0.000000,9030.512492,-76609.549800
161.170115,-12287.418637,7550.100608,-77682.083497
161.172684,-19393.395680,8438.347739,-75537.016103
161.175253,3404.947333,4737.318029,-77222.426198
161.177822,-4293.194464,13471.748144,-73698.386908
161.180392,-8290.306550,6957.935855,-77069.207099
161.182961,-4293.194464,6957.935855,-77988.521696
161.185530,-31828.855506,14508.036463,-71859.757712
161.188099,36714.214723,3256.906145,-79061.055394
161.190668,-296.082377,4293.194464,-75690.235202
161.193237,15100.201217,10807.006753,-75996.673402
161.195806,-1036.288319,7846.182985,-77988.521696
161.198375,-15692.365970,10214.842000,-73698.386908
161.200943,19689.478057,8438.347739,-77835.302597
161.203512,15396.283594,3404.947333,-77069.207099
161.206082,-4293.194464,11843.295072,-74924.139704
161.208651,-3404.947333,8586.388927,-76303.111601
161.211220,15100.201217,4441.235652,-77069.207099
161.213789,3404.947333,10807.006753,-75383.797003
161.216358,7550.100608,8882.471304,-75383.797003
161.218927,5329.482782,5329.482782,-77375.645298
161.221496,6957.935855,9178.553681,-75690.235202
161.224065,-6809.894666,7402.059420,-74770.920605
161.226634,26203.290347,7698.141797,-79367.493593
161.229203,444.123565,9326.594869,-76456.330700
161.231772,-39526.997303,9474.636058,-72472.634111
161.234341,37898.544230,2220.617826,-80133.589091
161.236910,-38490.708984,6069.688724,-75537.016103
161.239479,3552.988522,12731.542202,-75996.673402
161.242048,-14952.160028,5329.482782,-78448.178995
161.244617,-13323.706956,9770.718434,-74617.701505
161.247186,5773.606348,9178.553681,-76762.768900
161.249755,-1480.411884,7402.059420,-76456.330700
161.252324,-7402.059420,5181.441594,-77222.426198
161.254893,-6217.729913,9030.512492,-75843.454302
161.257462,2516.700203,9030.512492,-75230.577904
161.260032,-8734.430116,7994.224174,-76149.892501
161.262601,-14656.077652,7994.224174,-75230.577904
161.265170,-8142.265362,6365.771101,-77682.083497
161.267739,-13323.706956,8734.430116,-74617.701505
161.270308,6365.771101,6069.688724,-76303.111601
161.272877,1628.453072,10066.800811,-77682.083497
161.275446,-38638.750172,10066.800811,-76303.111601
161.278015,2960.823768,7105.977043,-75690.235202
161.280584,15692.365970,5329.482782,-79367.493593
161.283153,2960.823768,9178.553681,-73698.386908
161.285722,22354.219448,7698.141797,-77375.645298
161.288291,-9770.718434,12731.542202,-74311.263306
161.290860,7402.059420,3256.906145,-78448.178995
161.293429,20429.683999,7254.018232,-78907.836294
161.295998,-1924.535449,11843.295072,-73545.167808
161.298567,2072.576638,8882.471304,-74004.825107
161.301136,4441.235652,10510.924376,-76303.111601
161.303705,5477.523971,4589.276840,-77988.521696
161.306274,7105.977043,11103.089130,-74924.139704
161.308843,13323.706956,9474.636058,-74924.139704
161.311412,-2960.823768,6217.729913,-76915.987999
161.313981,11103.089130,9030.512492,-75690.235202
161.316550,24426.796086,8438.347739,-76303.111601
161.319119,-12435.459826,12139.377449,-74004.825107
161.321688,-2516.700203,5329.482782,-79214.274493
161.324257,13175.665768,2516.700203,-79061.055394
161.326826,11399.171507,12879.583391,-76303.111601
161.329395,-29016.072926,9178.553681,-71553.319513
161.331963,17320.819043,6069.688724,-79367.493593
161.334532,-37750.503042,10510.924376,-74617.701505
161.337101,3849.070898,7550.100608,-77375.645298
161.339670,1924.535449,6365.771101,-75996.673402
161.342239,-16432.571912,8290.306550,-74004.825107
161.344808,-4885.359217,7254.018232,-76762.768900
161.347377,2368.659014,8882.471304,-77222.426198
161.349946,6069.688724,6661.853478,-78294.959896
161.352515,-9770.718434,8882.471304,-75996.673402
161.355084,-20281.642811,9770.718434,-74617.701505
161.357653,-2516.700203,5921.647536,-77988.521696
161.360222,-13027.624579,8734.430116,-76762.768900
161.362791,-1036.288319,5329.482782,-75383.797003
161.365360,4589.276840,9622.677246,-76149.892501
161.367929,-28127.825796,9622.677246,-76762.768900
161.370497,27239.578666,3552.988522,-78754.617194
161.373066,1332.370696,7698.141797,-78448.178995
161.375635,9918.759623,7846.182985,-74770.920605
161.378204,19689.478057,6365.771101,-77682.083497
161.380773,-7105.977043,12879.583391,-74311.263306
161.383342,18209.066173,3256.906145,-78448.178995
161.385911,7994.224174,9030.512492,-77835.302597
161.388480,-5181.441594,12435.459826,-74004.825107
161.391049,11843.295072,2220.617826,-77528.864398
161.393618,1924.535449,10362.883188,-76456.330700
161.396187,-1036.288319,9030.512492,-76303.111601
161.398756,9622.677246,8438.347739,-74924.139704
161.401325,13767.830521,11103.089130,-75383.797003
161.403894,592.164754,6809.894666,-76303.111601
161.406462,10807.006753,7550.100608,-77375.645298
161.409030,18357.107362,8142.265362,-75383.797003
161.411598,-9474.636058,11695.253884,-73391.948708
161.414166,-1184.329507,4145.153275,-78754.617194
161.416734,26055.249158,4589.276840,-79827.150892
161.419302,-24426.796086,16432.571912,-72472.634111
161.421870,5329.482782,6217.729913,-75383.797003
161.424438,13471.748144,6069.688724,-79673.931792
161.427006,-35529.885216,12139.377449,-74004.825107
161.429574,6217.729913,6365.771101,-77835.302597
161.432142,-1036.288319,7698.141797,-75996.673402
161.434710,-16432.571912,9918.759623,-74924.139704
161.437278,-2812.782580,5477.523971,-76609.549800
161.439846,888.247130,7846.182985,-76609.549800
161.442414,-12139.377449,7105.977043,-76915.987999
161.444982,-3997.112087,7550.100608,-75843.454302
161.447550,-1924.535449,8734.430116,-76762.768900
161.450118,-14508.036463,6957.935855,-77069.207099
161.452686,-15988.448347,8438.347739,-75230.577904
161.455254,5477.523971,6957.935855,-76609.549800
161.457822,3108.864956,8882.471304,-75996.673402
161.460390,-34789.679274,9622.677246,-77222.426198
161.462958,22650.301825,4737.318029,-77682.083497
161.465526,-11399.171507,8734.430116,-77528.864398
161.468094,14952.160028,8586.388927,-74004.825107
161.470662,17024.736666,5033.400406,-77835.302597
161.473230,-6957.935855,11547.212695,-74770.920605
161.475798,12435.459826,3997.112087,-78448.178995
161.478366,18505.148550,8438.347739,-77375.645298
161.480934,-8734.430116,12435.459826,-72779.072310
161.483502,6069.688724,2516.700203,-77375.645298
161.486070,9770.718434,10066.800811,-77375.645298
161.488638,-7105.977043,7846.182985,-76609.549800
161.491207,6217.729913,8290.306550,-75383.797003
161.493775,22058.137072,9326.594869,-76609.549800
161.496343,444.123565,8882.471304,-76609.549800
161.498911,4589.276840,7402.059420,-76303.111601
161.501479,12435.459826,7846.182985,-74770.920605
161.504047,18505.148550,12583.501014,-76762.768900
161.506615,-24278.754898,7698.141797,-74924.139704
161.509182,6365.771101,3108.864956,-77069.207099
161.511749,20577.725188,10066.800811,-77988.521696
161.514317,-34197.514520,11103.089130,-70787.224015
161.516884,11251.130318,6217.729913,-78907.836294
161.519452,-27387.619854,9326.594869,-76149.892501
161.522019,444.123565,8290.306550,-76762.768900
161.524586,6365.771101,9326.594869,-76149.892501
161.527154,-9918.759623,6809.894666,-77069.207099
161.529721,-5773.606348,6661.853478,-76456.330700
161.532289,-3701.029710,10066.800811,-76149.892501
161.534856,-2812.782580,7846.182985,-76149.892501
161.537423,-3404.947333,6217.729913,-77528.864398
161.539991,-18357.107362,8290.306550,-75843.454302
161.542558,-12731.542202,9326.594869,-75843.454302
161.545125,-5033.400406,7698.141797,-76149.892501
