#time,accel_x,accel_y,accel_z
300.079719,-592.164754,7846.182985,-76149.892501
300.082309,-148.041188,8882.471304,-76456.330700
300.084900,-148.041188,8586.388927,-75383.797003
300.087490,0.000000,7994.224174,-75996.673402
300.090081,-296.082377,8290.306550,-75690.235202
300.092672,-740.205942,7105.977043,-76762.768900
300.095262,-296.082377,7550.100608,-76149.892501
300.097853,-592.164754,9770.718434,-75537.016103
300.100444,-1184.329507,7105.977043,-76149.892501
300.103034,-1184.329507,6069.688724,-77528.864398
300.105625,-592.164754,8586.388927,-76609.549800
300.108215,148.041188,9178.553681,-75690.235202
300.110781,-296.082377,7105.977043,-75537.016103
300.113347,0.000000,8142.265362,-76456.330700
300.115912,-592.164754,7994.224174,-76609.549800
300.118478,-740.205942,7550.100608,-75843.454302
300.121043,-444.123565,8586.388927,-75383.797003
300.123609,148.041188,8586.388927,-76303.111601
300.126174,-444.123565,6661.853478,-75996.673402
300.128740,-592.164754,7550.100608,-76149.892501
300.131306,-1184.329507,8882.471304,-75996.673402
300.133871,-296.082377,7846.182985,-76149.892501
300.136437,-296.082377,6809.894666,-77222.426198
300.139002,-888.247130,9622.677246,-75537.016103
300.141568,148.041188,8438.347739,-76303.111601
300.144133,-740.205942,6809.894666,-76609.549800
300.146699,-148.041188,7550.100608,-76149.892501
300.149265,-148.041188,8734.430116,-76456.330700
300.151830,0.000000,8142.265362,-75996.673402
300.154396,0.000000,8438.347739,-75996.673402
300.156961,148.041188,7994.224174,-76303.111601
300.159527,-592.164754,7105.977043,-76762.768900
300.162092,-296.082377,7698.141797,-76609.549800
300.164658,148.041188,8290.306550,-76609.549800
300.167224,0.000000,7105.977043,-75383.797003
300.169789,-592.164754,3404.947333,-77528.864398
300.172355,-296.082377,4441.235652,-77222.426198
300.174920,148.041188,5033.400406,-76609.549800
300.177486,444.123565,4293.194464,-76303.111601
300.180051,3108.864956,1480.411884,-77835.302597
300.182617,2516.700203,1036.288319,-77222.426198
300.185183,-3552.988522,3997.112087,-74617.701505
300.187748,-7550.100608,3552.988522,-76915.987999
300.190314,7550.100608,1036.288319,-78601.398095
300.192879,2368.659014,10807.006753,-76149.892501
300.195445,-10807.006753,11695.253884,-75996.673402
300.198011,19097.313304,2960.823768,-77988.521696
300.200576,-11547.212695,16136.489536,-75077.358804
300.203142,-20133.601622,15396.283594,-74770.920605
300.205707,22354.219448,6661.853478,-79827.150892
300.208273,-20133.601622,8438.347739,-75996.673402
300.210838,6217.729913,8586.388927,-76149.892501
300.213389,13471.748144,13175.665768,-75996.673402
300.215940,-6513.812290,12287.418637,-74770.920605
300.218491,-7846.182985,9622.677246,-76762.768900
300.221042,-740.205942,9622.677246,-75383.797003
300.223593,148.041188,11251.130318,-73085.510509
300.226144,-1480.411884,8586.388927,-77069.207099
300.228695,1184.329507,8438.347739,-79061.055394
300.231246,-1776.494261,12879.583391,-75077.358804
300.233797,3108.864956,6809.894666,-75230.577904
300.236348,-6217.729913,8438.347739,-76762.768900
300.238899,-3997.112087,6957.935855,-77069.207099
300.241450,6217.729913,14656.077652,-75843.454302
300.244001,5181.441594,13027.624579,-75383.797003
300.246552,-6069.688724,7402.059420,-76303.111601
300.249103,2072.576638,8142.265362,-76456.330700
300.251654,-444.123565,12435.459826,-73545.167808
300.254205,-8142.265362,17172.777854,-74617.701505
300.256756,11251.130318,18505.148550,-78141.740796
300.259307,-3849.070898,17468.860231,-75383.797003
300.261858,-3404.947333,12583.501014,-72779.072310
300.264409,-3108.864956,13027.624579,-75230.577904
300.266960,-296.082377,3701.029710,-78754.617194
300.269511,14211.954086,2072.576638,-79061.055394
300.272062,2960.823768,17912.983796,-74158.044206
300.274613,-30792.567187,8882.471304,-72625.853210
300.277164,22206.178260,10807.006753,-77528.864398
300.279715,6957.935855,8142.265362,-77222.426198
300.282266,-14211.954086,15692.365970,-72166.195912
300.284817,16728.654289,13175.665768,-75843.454302
300.287368,-1776.494261,-2516.700203,-80133.589091
300.289918,-27979.784608,9178.553681,-74158.044206
300.292469,9030.512492,-7846.182985,-78907.836294
300.295020,21317.931130,-4589.276840,-77222.426198
300.297571,9030.512492,8438.347739,-77222.426198
300.300122,-22650.301825,10807.006753,-73698.386908
300.302673,-3404.947333,3849.070898,-76609.549800
300.305224,12435.459826,15988.448347,-75537.016103
300.307775,-19837.519246,11547.212695,-73085.510509
300.310326,13915.871710,-1924.535449,-80440.027290
300.312877,5181.441594,888.247130,-78601.398095
300.315284,-11103.089130,6661.853478,-75077.358804
300.317686,-3701.029710,2516.700203,-77375.645298
300.320087,4145.153275,1184.329507,-79214.274493
300.322489,-1924.535449,7550.100608,-75383.797003
300.324891,-1628.453072,7105.977043,-74617.701505
300.327293,148.041188,10658.965565,-74311.263306
300.329695,888.247130,5773.606348,-78754.617194
300.332097,1776.494261,5329.482782,-77988.521696
300.334499,-2368.659014,6365.771101,-74924.139704
300.336901,-1332.370696,6217.729913,-75843.454302
300.339303,592.164754,3997.112087,-78294.959896
300.341705,3701.029710,5033.400406,-75690.235202
300.344107,-2220.617826,9770.718434,-74617.701505
300.346509,-296.082377,6513.812290,-76762.768900
300.348911,-148.041188,1184.329507,-78294.959896
300.351312,-3552.988522,-148.041188,-75537.016103
300.353714,7846.182985,-2812.782580,-74924.139704
300.356116,-2220.617826,8734.430116,-76609.549800
300.358518,-15248.242405,7550.100608,-77222.426198
300.360920,13027.624579,-3256.906145,-80746.465489
300.363322,-15396.283594,8882.471304,-71859.757712
300.365724,-14211.954086,13175.665768,-72625.853210
300.368126,27831.743419,-2960.823768,-80440.027290
300.370528,-5625.565159,14656.077652,-76609.549800
300.372930,-23834.631332,7254.018232,-73698.386908
300.375332,3701.029710,6809.894666,-75383.797003
300.377734,14656.077652,4737.318029,-77222.426198
300.380135,-23390.507767,10807.006753,-74004.825107
300.382537,9326.594869,11103.089130,-77528.864398
300.384939,18949.272115,16284.530724,-77069.207099
300.387341,-20133.601622,21021.848753,-74158.044206
300.389743,-26351.331535,17764.942608,-72166.195912
300.392145,21021.848753,5477.523971,-77835.302597
300.394547,16136.489536,17172.777854,-75690.235202
300.396949,-44264.315332,17024.736666,-69714.690318
300.399351,21169.889941,-2368.659014,-80133.589091
300.401753,9770.718434,4441.235652,-78294.959896
300.404155,-22502.260637,15100.201217,-70787.224015
300.406557,9918.759623,11103.089130,-77682.083497
300.408958,7698.141797,13471.748144,-78448.178995
300.411402,592.164754,17172.777854,-75843.454302
300.413845,-4885.359217,14656.077652,-72472.634111
300.416288,-4145.153275,4589.276840,-75537.016103
300.418731,2220.617826,9326.594869,-77375.645298
300.421174,5477.523971,9030.512492,-78907.836294
300.423617,-1776.494261,7105.977043,-75843.454302
300.426060,-740.205942,8290.306550,-73851.606007
300.428503,-1332.370696,9918.759623,-74311.263306
300.430946,-4589.276840,10658.965565,-76303.111601
300.433389,3256.906145,14211.954086,-76456.330700
300.435832,2812.782580,11695.253884,-76149.892501
300.438275,-3701.029710,10066.800811,-75537.016103
300.440718,-3701.029710,17764.942608,-73851.606007
300.443161,4589.276840,18801.230927,-75537.016103
300.445604,3701.029710,10214.842000,-77988.521696
300.448047,-8586.388927,13915.871710,-74158.044206
300.450490,1332.370696,19985.560434,-73545.167808
300.452934,-12139.377449,1924.535449,-75996.673402
300.455377,15396.283594,-1480.411884,-80593.246390
300.457820,6069.688724,20133.601622,-72779.072310
300.460263,-35677.926404,13767.830521,-72166.195912
300.462706,-3552.988522,16136.489536,-76303.111601
300.465149,24426.796086,2220.617826,-80746.465489
300.467592,-12583.501014,13915.871710,-73238.729609
300.470035,-7105.977043,7105.977043,-74924.139704
300.472478,32717.102636,-7846.182985,-83044.751983
300.474921,-26055.249158,5329.482782,-76149.892501
300.477364,-14952.160028,1628.453072,-74770.920605
300.479807,27387.619854,-5625.565159,-77528.864398
300.482250,3404.947333,9622.677246,-76609.549800
300.484693,-9770.718434,10658.965565,-74924.139704
300.487136,-19541.436869,12139.377449,-70634.004916
300.489579,22206.178260,15840.407159,-75996.673402
300.492022,-16284.530724,13323.706956,-75843.454302
300.494465,1184.329507,1036.288319,-77682.083497
300.496909,9178.553681,-148.041188,-77222.426198
300.499352,-6809.894666,3997.112087,-74617.701505
300.501795,-888.247130,2812.782580,-77528.864398
300.504238,2664.741391,2072.576638,-79061.055394
300.506681,-1480.411884,12879.583391,-75537.016103
300.509153,-444.123565,4145.153275,-75077.358804
300.511626,-740.205942,9030.512492,-74311.263306
300.514099,2072.576638,8734.430116,-75996.673402
300.516571,3256.906145,7698.141797,-79061.055394
300.519044,-5773.606348,9030.512492,-75996.673402
300.521516,0.000000,1480.411884,-76915.987999
300.523989,2516.700203,2516.700203,-76456.330700
300.526462,-3256.906145,8142.265362,-74924.139704
300.528934,-444.123565,7402.059420,-76456.330700
300.531407,-1036.288319,1776.494261,-78907.836294
300.533879,4737.318029,-2664.741391,-77069.207099
300.536352,-8290.306550,3404.947333,-73085.510509
300.538825,-5625.565159,1184.329507,-77682.083497
300.541297,5181.441594,592.164754,-80899.684589
300.543770,-13767.830521,7105.977043,-74158.044206
300.546242,18653.189738,10066.800811,-75996.673402
300.548715,-4441.235652,8438.347739,-74464.482406
300.551188,-25907.207970,1776.494261,-75077.358804
300.553660,33901.432144,-4145.153275,-83044.751983
300.556133,-10807.006753,2664.741391,-76149.892501
300.558605,-13619.789333,8586.388927,-75537.016103
300.561078,-4145.153275,-2960.823768,-78601.398095
300.563551,27535.661042,17764.942608,-77375.645298
300.566023,-21762.054695,19541.436869,-69561.471218
300.568496,-16136.489536,15248.242405,-73391.948708
300.570968,35381.844028,16728.654289,-78294.959896
300.573441,-4441.235652,13323.706956,-76915.987999
300.575914,-31976.896694,3256.906145,-73085.510509
300.578386,39675.038491,6217.729913,-79827.150892
300.580859,-15692.365970,10955.047942,-76762.768900
300.583331,-33309.267390,5181.441594,-73085.510509
300.585804,12731.542202,2072.576638,-77988.521696
300.588277,16284.530724,15248.242405,-75996.673402
300.590749,-17320.819043,19689.478057,-73851.606007
300.593222,-2812.782580,11547.212695,-76609.549800
300.595694,7698.141797,12139.377449,-76456.330700
300.598167,-1184.329507,6513.812290,-76456.330700
300.600640,-8290.306550,6661.853478,-74311.263306
300.603112,-148.041188,7846.182985,-79367.493593
300.605585,9474.636058,10807.006753,-78141.740796
300.608077,5181.441594,8142.265362,-75690.235202
300.610569,-6957.935855,9474.636058,-73545.167808
300.613061,-2960.823768,12583.501014,-73851.606007
300.615553,1036.288319,12435.459826,-78907.836294
300.618045,-888.247130,14063.912898,-76149.892501
300.620537,-2812.782580,17024.736666,-76303.111601
300.623029,6809.894666,13175.665768,-76149.892501
300.625520,740.205942,10955.047942,-75843.454302
300.628012,-8142.265362,11251.130318,-74004.825107
300.630504,-6809.894666,17024.736666,-74004.825107
300.632996,1332.370696,2368.659014,-80133.589091
300.635488,15544.324782,888.247130,-79980.369991
300.637980,-10658.965565,16580.613101,-72932.291410
300.640472,-10510.924376,9178.553681,-75230.577904
300.642964,29460.196492,6957.935855,-79673.931792
300.645456,-11843.295072,19541.436869,-74311.263306
300.647948,-21465.972318,13619.789333,-72319.415011
300.650440,32124.937883,12583.501014,-76762.768900
300.652932,-26499.372724,3256.906145,-76303.111601
300.655424,-38046.585419,8734.430116,-72779.072310
300.657916,11991.336260,-9326.594869,-79980.369991
300.660408,23834.631332,-10807.006753,-82278.656485
300.662900,-19837.519246,13619.789333,-74158.044206
300.665392,-20725.766376,5181.441594,-75077.358804
300.667884,31680.814318,-3849.070898,-81665.780087
300.670376,-16284.530724,10955.047942,-75383.797003
300.672868,-11991.336260,11399.171507,-74311.263306
300.675360,23538.548956,3108.864956,-79673.931792
300.677852,-7402.059420,740.205942,-78754.617194
300.680343,-9770.718434,2960.823768,-74311.263306
300.682835,-1332.370696,1184.329507,-75383.797003
300.685327,5921.647536,1036.288319,-79214.274493
300.687819,-2220.617826,12139.377449,-78141.740796
300.690311,-6957.935855,9178.553681,-74464.482406
300.692803,3552.988522,3997.112087,-74464.482406
300.695295,2960.823768,9474.636058,-75383.797003
300.697787,-1036.288319,6217.729913,-77835.302597
300.700279,1036.288319,6661.853478,-78907.836294
300.702771,-1776.494261,5033.400406,-77682.083497
300.705263,-3849.070898,3849.070898,-74311.263306
300.707770,-1332.370696,3108.864956,-75690.235202
300.710277,2960.823768,592.164754,-78601.398095
300.712783,4737.318029,148.041188,-79061.055394
300.715290,-3701.029710,5477.523971,-76149.892501
300.717797,-5181.441594,2812.782580,-76303.111601
300.720304,-2072.576638,-1332.370696,-78754.617194
300.722811,-2960.823768,3256.906145,-74617.701505
300.725318,12139.377449,10214.842000,-76762.768900
300.727824,6809.894666,5329.482782,-78141.740796
300.730331,-31532.773129,8290.306550,-74617.701505
300.732838,20281.642811,-5477.523971,-81972.218286
300.735345,8734.430116,-1332.370696,-77375.645298
300.737852,-18653.189738,10658.965565,-73545.167808
300.740359,6513.812290,296.082377,-79520.712692
300.742865,14804.118840,22354.219448,-76609.549800
300.745372,-28127.825796,21317.931130,-68642.156621
300.747879,3849.070898,15396.283594,-74004.825107
300.750386,30644.525999,18505.148550,-75843.454302
300.752893,10066.800811,11991.336260,-76762.768900
300.755400,-36862.255912,8438.347739,-72166.195912
300.757906,30644.525999,4589.276840,-80746.465489
300.760413,-1480.411884,9326.594869,-78294.959896
300.762920,-28571.949361,6217.729913,-72932.291410
300.765427,23390.507767,2220.617826,-76915.987999
300.767934,-592.164754,18209.066173,-73545.167808
300.770441,-15544.324782,17616.901420,-74311.263306
300.772947,10066.800811,11251.130318,-78448.178995
300.775454,4737.318029,16728.654289,-75537.016103
300.777961,-148.041188,8290.306550,-75383.797003
300.780468,-5181.441594,7254.018232,-74004.825107
300.782975,-2812.782580,9918.759623,-77375.645298
300.785482,7846.182985,9770.718434,-79520.712692
300.787988,-1628.453072,6217.729913,-77069.207099
300.790495,-4145.153275,10510.924376,-72472.634111
300.793002,3256.906145,13915.871710,-74004.825107
300.795509,-4293.194464,10658.965565,-77069.207099
300.798016,-5181.441594,21317.931130,-75383.797003
300.800523,7105.977043,18209.066173,-75230.577904
300.803029,5921.647536,6809.894666,-77069.207099
300.805536,-9326.594869,3997.112087,-75230.577904
300.808055,-7846.182985,17764.942608,-73085.510509
300.810573,-3849.070898,5329.482782,-77988.521696
300.813092,14359.995275,-296.082377,-82125.437386
300.815610,-5477.523971,18653.189738,-73851.606007
300.818129,-20725.766376,12139.377449,-72932.291410
300.820648,30496.484810,5625.565159,-80899.684589
300.823166,-3404.947333,17616.901420,-76149.892501
300.825685,-23686.590144,19245.354492,-70174.347617
300.828203,-25907.207970,3997.112087,-74464.482406
300.830722,38342.667796,-12583.501014,-84576.942979
300.833240,-13767.830521,2812.782580,-77069.207099
300.835759,-28423.908173,6957.935855,-71400.100414
300.838278,27683.702231,-4145.153275,-78294.959896
300.840796,11103.089130,13619.789333,-76762.768900
300.843315,-34937.720462,18949.272115,-70174.347617
300.845833,11103.089130,5033.400406,-75843.454302
300.848352,14211.954086,9326.594869,-78448.178995
300.850870,-17764.942608,14359.995275,-75843.454302
300.853389,-8586.388927,1628.453072,-76762.768900
300.855907,19245.354492,-4293.194464,-79367.493593
300.858426,-2960.823768,3997.112087,-75843.454302
300.860945,-7105.977043,4885.359217,-74770.920605
300.863463,1332.370696,6661.853478,-77528.864398
300.865982,2664.741391,9918.759623,-78601.398095
300.868500,-4589.276840,9918.759623,-74617.701505
300.871019,-3108.864956,6365.771101,-73085.510509
300.873537,3997.112087,5477.523971,-76915.987999
300.876056,4145.153275,4441.235652,-79673.931792
300.878575,-3108.864956,6661.853478,-77682.083497
300.881093,-3701.029710,3997.112087,-72779.072310
300.883612,-1480.411884,-148.041188,-76456.330700
300.886130,6069.688724,-444.123565,-77375.645298
300.888572,-3256.906145,1332.370696,-76149.892501
300.891014,1480.411884,7550.100608,-77528.864398
300.893456,-2960.823768,5921.647536,-77682.083497
300.895898,-888.247130,-1332.370696,-77528.864398
300.898340,-11695.253884,5921.647536,-72932.291410
300.900781,-12731.542202,11547.212695,-73238.729609
300.903223,30348.443622,-2516.700203,-81206.122788
300.905665,-888.247130,16284.530724,-76609.549800
300.908107,-34937.720462,7550.100608,-71400.100414
300.910549,9178.553681,8438.347739,-74617.701505
300.912991,17468.860231,9030.512492,-77682.083497
300.915433,-35529.885216,10510.924376,-73391.948708
300.917875,22798.343014,6809.894666,-79520.712692
300.920316,19689.478057,14656.077652,-78141.740796
300.922758,-35677.926404,18801.230927,-72779.072310
300.925200,-35233.802839,18653.189738,-71553.319513
300.927642,38342.667796,7254.018232,-78448.178995
300.930084,-10362.883188,19097.313304,-74311.263306
300.932526,-36862.255912,9326.594869,-74158.044206
300.934968,33753.390955,-740.205942,-81206.122788
300.937410,-9178.553681,6661.853478,-77375.645298
300.939851,-21169.889941,5477.523971,-72932.291410
300.942293,27239.578666,13175.665768,-76149.892501
300.944735,-7698.141797,19097.313304,-75230.577904
300.947177,-11399.171507,15396.283594,-74924.139704
300.949619,-4293.194464,7698.141797,-75537.016103
300.952061,1480.411884,9622.677246,-72932.291410
300.954503,4589.276840,11843.295072,-75230.577904
300.956945,-4737.318029,6069.688724,-78294.959896
300.959386,-1480.411884,6217.729913,-78294.959896
300.961828,11103.089130,13175.665768,-74464.482406
300.964270,-4441.235652,13323.706956,-72012.976812
300.966712,-3256.906145,13323.706956,-75996.673402
300.969154,4885.359217,20873.807564,-75230.577904
300.971596,3997.112087,16432.571912,-75843.454302
300.974038,-11695.253884,7846.182985,-75843.454302
300.976480,-2368.659014,9918.759623,-75077.358804
300.978921,7846.182985,3997.112087,-77375.645298
300.981363,3108.864956,3701.029710,-77222.426198
300.983805,-15692.365970,12287.418637,-74617.701505
300.986277,23686.590144,13027.624579,-78907.836294
300.988749,3256.906145,8142.265362,-78448.178995
300.991221,-35233.802839,22798.343014,-69714.690318
300.993693,10214.842000,-592.164754,-79367.493593
300.996165,37306.379477,11843.295072,-75996.673402
300.998637,-39378.956114,5773.606348,-75230.577904
301.001109,6217.729913,4737.318029,-77682.083497
301.003581,35974.008781,-10510.924376,-81972.218286
301.006053,-24130.713709,1036.288319,-74004.825107
301.008525,-15100.201217,5477.523971,-74158.044206
301.010996,34493.596897,-1036.288319,-81359.341888
301.013468,-6217.729913,9918.759623,-76609.549800
301.015940,-30200.402434,16580.613101,-69867.909418
301.018412,22946.384202,5477.523971,-77528.864398
301.020884,22502.260637,6661.853478,-78448.178995
301.023356,-23094.425390,8438.347739,-75077.358804
301.025828,3404.947333,-2664.741391,-76609.549800
301.028300,14063.912898,-1332.370696,-77988.521696
301.030772,-1184.329507,5181.441594,-76915.987999
301.033244,-8142.265362,8882.471304,-75843.454302
301.035716,-3849.070898,5329.482782,-77835.302597
301.038188,4441.235652,7105.977043,-76149.892501
301.040660,296.082377,6513.812290,-74158.044206
301.043132,-2368.659014,11991.336260,-76303.111601
301.045604,1628.453072,7254.018232,-78294.959896
301.048075,-592.164754,592.164754,-79214.274493
301.050547,-2664.741391,592.164754,-75077.358804
301.053019,3108.864956,-1776.494261,-76456.330700
301.055491,1184.329507,2516.700203,-76915.987999
301.057963,-7698.141797,11399.171507,-75996.673402
301.060435,-592.164754,3849.070898,-77222.426198
301.062907,3256.906145,3701.029710,-76303.111601
301.065379,6217.729913,12287.418637,-73851.606007
301.067851,-1036.288319,5033.400406,-75230.577904
301.070323,-22650.301825,-3108.864956,-76149.892501
301.072795,33605.349767,-1628.453072,-82125.437386
301.075267,-10510.924376,1924.535449,-76303.111601
301.077739,-21910.095883,3552.988522,-76149.892501
301.080211,22798.343014,1480.411884,-79673.931792
301.082683,-5181.441594,26351.331535,-73085.510509
301.085104,-31088.649564,18209.066173,-69714.690318
301.087526,33753.390955,15544.324782,-77528.864398
301.089948,8438.347739,25759.166782,-75537.016103
301.092370,-25759.166782,19097.313304,-72319.415011
301.094792,-8438.347739,2368.659014,-75077.358804
301.097214,39823.079680,13027.624579,-77835.302597
301.099636,-31976.896694,17468.860231,-72319.415011
301.102058,-11399.171507,6957.935855,-74924.139704
301.104480,28868.031738,6217.729913,-77222.426198
301.106902,-15248.242405,12879.583391,-75077.358804
301.109324,-1036.288319,15396.283594,-72932.291410
301.111746,16580.613101,17320.819043,-75077.358804
301.114167,-5033.400406,14063.912898,-76762.768900
301.116589,-9326.594869,2072.576638,-77988.521696
301.119011,-4441.235652,12287.418637,-71706.538613
301.121433,2220.617826,11399.171507,-76456.330700
301.123855,2664.741391,4589.276840,-81359.341888
301.126277,-7994.224174,12435.459826,-75690.235202
301.128699,3404.947333,17024.736666,-72012.976812
301.131121,7105.977043,11547.212695,-75230.577904
301.133543,-3997.112087,18357.107362,-76303.111601
301.135965,-3108.864956,16136.489536,-75383.797003
301.138387,-5329.482782,10214.842000,-75996.673402
301.140808,1332.370696,13471.748144,-75843.454302
301.143230,-9178.553681,6809.894666,-73851.606007
301.145652,9178.553681,296.082377,-76762.768900
301.148074,7254.018232,20873.807564,-73851.606007
301.150496,-28868.031738,15692.365970,-73851.606007
301.152918,19393.395680,7846.182985,-79827.150892
301.155340,12583.501014,16136.489536,-75690.235202
301.157762,-26795.455100,20725.766376,-67722.842023
301.160184,24130.713709,10658.965565,-76303.111601
301.162606,23390.507767,-11251.130318,-83657.628382
301.165028,-33753.390955,9178.553681,-74311.263306
301.167449,-3108.864956,-5921.647536,-77988.521696
301.169871,33901.432144,-15248.242405,-82125.437386
301.172293,-23834.631332,12583.501014,-73698.386908
301.174715,-19393.395680,7254.018232,-74311.263306
301.177137,34493.596897,-5033.400406,-83810.847481
301.179559,-12879.583391,11843.295072,-75690.235202
301.182018,-18653.189738,11399.171507,-73545.167808
301.184477,26055.249158,2368.659014,-79214.274493
301.186937,8586.388927,888.247130,-78448.178995
301.189396,-15692.365970,5625.565159,-74158.044206
301.191855,4441.235652,-2072.576638,-76149.892501
301.194314,5625.565159,4589.276840,-78294.959896
301.196773,-444.123565,13175.665768,-76456.330700
301.199233,-7698.141797,4737.318029,-75077.358804
301.201692,-7698.141797,3552.988522,-74770.920605
301.204151,6809.894666,6365.771101,-75537.016103
301.206610,2220.617826,6217.729913,-77988.521696
301.209069,-6217.729913,4737.318029,-77222.426198
301.211529,4589.276840,296.082377,-75996.673402
301.213988,740.205942,-148.041188,-76303.111601
301.216447,-9918.759623,1480.411884,-75537.016103
301.218906,-1036.288319,3256.906145,-78141.740796
301.221365,8142.265362,4145.153275,-77069.207099
301.223824,-19837.519246,5921.647536,-75537.016103
301.226284,-10510.924376,5477.523971,-77375.645298
301.228743,34345.555709,-3701.029710,-79520.712692
301.231202,-26055.249158,15100.201217,-73545.167808
301.233661,-21762.054695,1480.411884,-76149.892501
301.236120,23094.425390,8586.388927,-77835.302597
301.238580,27831.743419,8586.388927,-78601.398095
301.241039,-36566.173535,11843.295072,-72166.195912
301.243498,15840.407159,8586.388927,-77222.426198
301.245957,28275.866984,14063.912898,-77069.207099
301.248416,-42339.779882,16136.489536,-71859.757712
301.250876,4885.359217,12287.418637,-79061.055394
301.253335,34789.679274,8438.347739,-77682.083497
301.255794,-42783.903448,6365.771101,-72472.634111
301.258253,19541.436869,1332.370696,-80133.589091
301.260712,30348.443622,1184.329507,-79367.493593
301.263172,-11843.295072,5921.647536,-77988.521696
301.265631,-15100.201217,8142.265362,-74617.701505
301.268090,18653.189738,10066.800811,-77835.302597
301.270549,-2812.782580,15544.324782,-75077.358804
301.273008,-2812.782580,12731.542202,-77988.521696
301.275468,4737.318029,11547.212695,-76456.330700
301.277927,-3108.864956,7254.018232,-75383.797003
301.280414,-3849.070898,11991.336260,-74158.044206
301.282903,-3552.988522,8290.306550,-78601.398095
301.285392,1480.411884,11399.171507,-78754.617194
301.287881,6809.894666,14359.995275,-73238.729609
301.290370,2516.700203,14656.077652,-72779.072310
301.292858,-1776.494261,13323.706956,-75843.454302
301.295347,-7846.182985,14211.954086,-76609.549800
301.297836,-9770.718434,16136.489536,-75077.358804
301.300325,11547.212695,10807.006753,-77222.426198
301.302813,1776.494261,6809.894666,-75077.358804
301.305302,-8142.265362,6513.812290,-74924.139704
301.307791,28868.031738,15396.283594,-76609.549800
301.310280,5033.400406,5625.565159,-80133.589091
301.312769,-35677.926404,22798.343014,-70940.443115
301.315257,2812.782580,-1036.288319,-77375.645298
301.317746,25907.207970,9622.677246,-76915.987999
301.320235,-35529.885216,9918.759623,-72012.976812
301.322724,27239.578666,-3552.988522,-81665.780087
301.325212,10510.924376,-592.164754,-79673.931792
301.327701,-38342.667796,7846.182985,-70480.785816
301.330190,14063.912898,-5329.482782,-78294.959896
301.332679,26351.331535,7846.182985,-76762.768900
301.335168,-7105.977043,13767.830521,-74617.701505
301.337656,-22058.137072,15248.242405,-71246.881314
301.340145,20725.766376,4441.235652,-77375.645298
301.342634,-15544.324782,16876.695478,-74770.920605
301.345123,-7846.182985,4885.359217,-76149.892501
301.347611,23686.590144,-1332.370696,-79673.931792
301.350100,-7846.182985,7254.018232,-73698.386908
301.352589,-1924.535449,4145.153275,-76149.892501
301.355078,2220.617826,4589.276840,-77835.302597
301.357567,-888.247130,9770.718434,-78754.617194
301.360055,2220.617826,6809.894666,-74924.139704
301.362544,1036.288319,10510.924376,-71706.538613
301.365033,-5181.441594,3552.988522,-75537.016103
301.367522,8290.306550,1480.411884,-81206.122788
301.370010,2220.617826,1776.494261,-78141.740796
301.372499,-4589.276840,888.247130,-76456.330700
301.374988,-2664.741391,-148.041188,-76149.892501
301.377477,-11991.336260,-2072.576638,-76915.987999
301.379987,13027.624579,444.123565,-77528.864398
301.382498,12139.377449,14359.995275,-76456.330700
301.385008,-17912.983796,12731.542202,-74617.701505
301.387518,16580.613101,-3404.947333,-79214.274493
301.390029,13915.871710,12583.501014,-74464.482406
301.392539,-35233.802839,7846.182985,-69255.033019
301.395050,-2664.741391,11251.130318,-76915.987999
301.397560,31384.731941,8142.265362,-79214.274493
301.400070,-33309.267390,13767.830521,-73698.386908
301.402581,9030.512492,8586.388927,-77069.207099
301.405091,30940.608376,11547.212695,-78141.740796
301.407602,-3256.906145,23834.631332,-75843.454302
301.410112,-42043.697506,20429.683999,-71706.538613
301.412622,42783.903448,9030.512492,-79520.712692
301.415133,-12731.542202,11399.171507,-76456.330700
301.417643,-23982.672521,6661.853478,-75690.235202
301.420154,27683.702231,4145.153275,-79061.055394
301.422664,-10214.842000,7846.182985,-77375.645298
301.425175,-17764.942608,7846.182985,-74464.482406
301.427685,17468.860231,11547.212695,-76609.549800
301.430195,-296.082377,15692.365970,-74924.139704
301.432706,-5773.606348,12287.418637,-77069.207099
301.435216,1628.453072,9474.636058,-76149.892501
301.437727,-1184.329507,10066.800811,-72472.634111
301.440237,-2960.823768,11991.336260,-75230.577904
301.442747,-4145.153275,8586.388927,-78754.617194
301.445258,3701.029710,10362.883188,-77682.083497
301.447768,9474.636058,14952.160028,-74158.044206
301.450279,-3849.070898,15248.242405,-72625.853210
301.452789,-6661.853478,11399.171507,-76915.987999
301.455299,-7994.224174,16136.489536,-77528.864398
301.457810,8586.388927,12731.542202,-75996.673402
301.460320,9178.553681,6661.853478,-75690.235202
301.462831,-13767.830521,9622.677246,-73698.386908
301.465341,27979.784608,10955.047942,-77069.207099
301.467851,-7402.059420,7994.224174,-77835.302597
301.470362,-38934.832549,19245.354492,-72472.634111
301.472872,21465.972318,-6957.935855,-80899.684589
301.475383,6069.688724,9178.553681,-76303.111601
301.477893,-27979.784608,7550.100608,-72932.291410
301.480420,20281.642811,2812.782580,-79980.369991
301.482948,29016.072926,-1036.288319,-80593.246390
301.485475,-45892.768404,9474.636058,-69561.471218
301.488002,6661.853478,-2960.823768,-75996.673402
301.490529,37158.338288,3404.947333,-78294.959896
301.493057,-36270.091158,20873.807564,-68488.937521
301.495584,2072.576638,8586.388927,-74924.139704
301.498111,21021.848753,740.205942,-78907.836294
301.500639,-21465.972318,14656.077652,-73851.606007
301.503166,-592.164754,3552.988522,-76456.330700
301.505693,16284.530724,-1184.329507,-79673.931792
301.508220,-2664.741391,5773.606348,-75383.797003
301.510748,740.205942,3256.906145,-76609.549800
301.513275,1184.329507,6661.853478,-76609.549800
301.515802,-4737.318029,9030.512492,-78601.398095
301.518330,148.041188,4293.194464,-77835.302597
301.520857,-5329.482782,5773.606348,-72779.072310
301.523384,5181.441594,6513.812290,-75230.577904
301.525911,4589.276840,888.247130,-80286.808190
301.528439,0.000000,2516.700203,-79980.369991
301.530966,-4589.276840,4737.318029,-75077.358804
301.533493,-9918.759623,-444.123565,-74924.139704
301.536020,8438.347739,-3404.947333,-76762.768900
301.538548,-2516.700203,9326.594869,-75383.797003
301.541075,-8734.430116,11547.212695,-75996.673402
301.543602,27535.661042,1036.288319,-81665.780087
301.546130,-23242.466579,16136.489536,-72166.195912
301.548657,-22354.219448,1184.329507,-73851.606007
301.551184,25167.002028,3404.947333,-77222.426198
301.553711,-2368.659014,12583.501014,-79214.274493
301.556239,-35825.967593,12583.501014,-74158.044206
301.558766,22058.137072,6513.812290,-79367.493593
301.561293,18949.272115,10362.883188,-77528.864398
301.563821,-41895.656317,13915.871710,-71706.538613
301.566348,14063.912898,13175.665768,-77222.426198
301.568875,22354.219448,12435.459826,-78448.178995
301.571402,-35381.844028,1776.494261,-74924.139704
301.573930,30940.608376,4737.318029,-80286.808190
301.576457,-6513.812290,16284.530724,-75383.797003
301.578984,-26795.455100,8882.471304,-74004.825107
301.581525,-8734.430116,4589.276840,-77682.083497
301.584065,14211.954086,11103.089130,-76149.892501
301.586606,-5329.482782,15692.365970,-74158.044206
301.589147,2812.782580,8734.430116,-77835.302597
301.591687,4737.318029,9326.594869,-78754.617194
301.594228,-7550.100608,9770.718434,-73238.729609
301.596768,-296.082377,10955.047942,-73391.948708
301.599309,-2220.617826,11399.171507,-76762.768900
301.601849,148.041188,10066.800811,-78907.836294
301.604390,5033.400406,12287.418637,-74617.701505
301.606931,1332.370696,14656.077652,-74770.920605
301.609471,-5625.565159,16136.489536,-75843.454302
301.612012,1776.494261,16580.613101,-78601.398095
301.614552,-8734.430116,14063.912898,-71553.319513
301.617093,6661.853478,7550.100608,-75230.577904
301.619634,7550.100608,14211.954086,-76303.111601
301.622174,-22798.343014,10955.047942,-75537.016103
301.624715,28719.990550,4885.359217,-79827.150892
301.627255,-2960.823768,18505.148550,-73391.948708
301.629796,-33605.349767,15692.365970,-70327.566716
301.632337,12583.501014,10955.047942,-75996.673402
301.634877,33457.308578,-6513.812290,-83657.628382
301.637418,-22502.260637,7550.100608,-76303.111601
301.639958,-22354.219448,3256.906145,-74464.482406
301.642499,33901.432144,-11103.089130,-79980.369991
301.645040,-13471.748144,7254.018232,-74617.701505
301.647580,-22650.301825,11695.253884,-73085.510509
301.650121,31680.814318,-3108.864956,-81206.122788
301.652661,-8290.306550,6957.935855,-77222.426198
301.655202,-17912.983796,11251.130318,-74464.482406
301.657743,4293.194464,4737.318029,-77222.426198
301.660283,4441.235652,4293.194464,-77069.207099
301.662824,-7550.100608,5773.606348,-76456.330700
301.665364,11843.295072,-2072.576638,-77988.521696
301.667905,0.000000,8438.347739,-74770.920605
301.670446,-4293.194464,15396.283594,-76149.892501
301.672986,-3108.864956,-4737.318029,-79520.712692
301.675527,-2516.700203,6069.688724,-75843.454302
301.678067,5033.400406,6957.935855,-73085.510509
301.680608,296.082377,1628.453072,-78754.617194
301.683101,-3849.070898,-592.164754,-80440.027290
301.685594,-3701.029710,5033.400406,-75843.454302
301.688087,-1332.370696,-6365.771101,-75537.016103
301.690579,-7994.224174,-1924.535449,-76149.892501
301.693072,12287.418637,11695.253884,-77222.426198
301.695565,-2516.700203,5329.482782,-77069.207099
301.698058,-10362.883188,-888.247130,-78294.959896
301.700551,33013.185013,10214.842000,-76456.330700
301.703044,-20577.725188,296.082377,-74770.920605
301.705537,-31088.649564,6069.688724,-75690.235202
301.708030,15544.324782,7402.059420,-78601.398095
301.710523,17024.736666,23834.631332,-74158.044206
301.713015,-40711.326810,16432.571912,-69867.909418
301.715508,30644.525999,12435.459826,-77222.426198
301.718001,18505.148550,22206.178260,-74924.139704
301.720494,-48557.509795,23686.590144,-67569.622924
301.722987,34345.555709,10955.047942,-77988.521696
301.725480,2960.823768,13175.665768,-77222.426198
301.727973,-30496.484810,10362.883188,-73391.948708
301.730466,-296.082377,8290.306550,-75996.673402
301.732959,16580.613101,6513.812290,-77528.864398
301.735452,-16728.654289,11547.212695,-75230.577904
301.737944,740.205942,12731.542202,-72932.291410
301.740437,10066.800811,11251.130318,-76609.549800
301.742930,-2516.700203,12583.501014,-78294.959896
301.745423,1036.288319,3997.112087,-78294.959896
301.747916,-3997.112087,13175.665768,-72166.195912
301.750409,1184.329507,16432.571912,-74464.482406
301.752902,-740.205942,4293.194464,-80286.808190
301.755395,-6365.771101,10362.883188,-75996.673402
301.757888,-888.247130,18801.230927,-72779.072310
301.760380,-1776.494261,20281.642811,-74004.825107
301.762873,3997.112087,10955.047942,-80440.027290
301.765366,592.164754,13323.706956,-74464.482406
301.767859,-6661.853478,14656.077652,-70480.785816
301.770352,20281.642811,16284.530724,-76149.892501
301.772845,-23686.590144,11399.171507,-77528.864398
301.775338,296.082377,11843.295072,-77528.864398
301.777831,26943.496289,4885.359217,-77835.302597
301.780324,5181.441594,6809.894666,-76149.892501
301.782838,-20281.642811,5181.441594,-74924.139704
301.785352,36270.091158,-9918.759623,-84270.504780
301.787867,-27387.619854,11991.336260,-73698.386908
301.790381,-22354.219448,4737.318029,-75077.358804
301.792896,41747.615129,-14952.160028,-82585.094684
301.795410,-22946.384202,7846.182985,-74617.701505
301.797925,-18061.024985,11103.089130,-72932.291410
301.800439,32569.061448,-7254.018232,-83657.628382
301.802954,4885.359217,-1332.370696,-80286.808190
301.805468,-15248.242405,12287.418637,-73698.386908
301.807983,-1184.329507,4589.276840,-76303.111601
301.810497,4441.235652,3701.029710,-77835.302597
301.813011,-7550.100608,7846.182985,-75843.454302
301.815526,10362.883188,3997.112087,-75537.016103
301.818040,3404.947333,7254.018232,-75996.673402
301.820555,-7698.141797,7846.182985,-77375.645298
301.823069,2220.617826,1184.329507,-78601.398095
301.825584,-2220.617826,4885.359217,-75230.577904
301.828098,-4293.194464,6069.688724,-75077.358804
301.830613,740.205942,2664.741391,-78754.617194
301.833127,-2812.782580,0.000000,-78601.398095
301.835642,-4145.153275,-4441.235652,-77069.207099
301.838156,8290.306550,-1776.494261,-75077.358804
301.840671,2072.576638,6513.812290,-76609.549800
301.843185,-16432.571912,4589.276840,-77222.426198
301.845699,23242.466579,0.000000,-79520.712692
301.848214,3404.947333,23094.425390,-71553.319513
301.850728,-36270.091158,9178.553681,-69867.909418
301.853243,-21169.889941,11695.253884,-74158.044206
301.855757,35677.926404,7105.977043,-79367.493593
301.858272,-26351.331535,16876.695478,-74311.263306
301.860786,-5033.400406,11399.171507,-77222.426198
301.863301,39675.038491,7254.018232,-80286.808190
301.865815,-34937.720462,17024.736666,-74464.482406
301.868330,-15100.201217,17912.983796,-74158.044206
301.870844,45152.562462,9326.594869,-78754.617194
301.873358,-33457.308578,4885.359217,-75996.673402
301.875873,7254.018232,6069.688724,-78448.178995
301.878387,17764.942608,9918.759623,-74617.701505
301.880902,-1628.453072,9474.636058,-78448.178995
301.883433,-11695.253884,7254.018232,-77375.645298
301.885965,3108.864956,11843.295072,-74617.701505
301.888496,5181.441594,15840.407159,-74004.825107
301.891028,2368.659014,9770.718434,-77682.083497
301.893559,-3552.988522,3256.906145,-79980.369991
301.896090,4441.235652,15840.407159,-72779.072310
301.898622,-444.123565,11843.295072,-74617.701505
301.901153,-12435.459826,9622.677246,-76915.987999
301.903685,-1332.370696,10510.924376,-77835.302597
301.906216,8142.265362,19393.395680,-72779.072310
301.908747,-11251.130318,21762.054695,-73545.167808
301.911279,-444.123565,10362.883188,-78294.959896
301.913810,16136.489536,4885.359217,-77835.302597
301.916342,-16284.530724,15988.448347,-69867.909418
301.918873,11547.212695,14063.912898,-76456.330700
301.921405,15544.324782,-740.205942,-83964.066581
301.923936,-37898.544230,17912.983796,-72472.634111
301.926467,-33309.267390,10807.006753,-69408.252119
301.928999,41747.615129,10214.842000,-75843.454302
301.931530,-30200.402434,4737.318029,-75996.673402
301.934062,296.082377,6661.853478,-77069.207099
301.936593,38934.832549,1332.370696,-79214.274493
301.939125,-40119.162056,6957.935855,-72166.195912
301.941656,-3404.947333,-1036.288319,-77835.302597
301.944187,39971.120868,1776.494261,-78294.959896
301.946719,-30792.567187,18653.189738,-69561.471218
301.949250,888.247130,5477.523971,-76609.549800
301.951782,10510.924376,1480.411884,-78141.740796
301.954313,-296.082377,7254.018232,-76303.111601
301.956845,-10066.800811,8142.265362,-75230.577904
301.959376,5921.647536,1480.411884,-78448.178995
301.961907,296.082377,6513.812290,-75843.454302
301.964439,1036.288319,6809.894666,-74158.044206
301.966970,5921.647536,8734.430116,-77069.207099
301.969502,-6069.688724,5477.523971,-76762.768900
301.972033,2220.617826,1776.494261,-77682.083497
301.974565,-2664.741391,7698.141797,-75383.797003
301.977096,-6513.812290,5033.400406,-76149.892501
301.979627,592.164754,-444.123565,-78448.178995
301.982159,-1184.329507,-6365.771101,-78294.959896
301.984651,296.082377,-444.123565,-74770.920605
301.987143,11843.295072,6069.688724,-75843.454302
301.989636,-18357.107362,4145.153275,-77835.302597
301.992128,16876.695478,-148.041188,-79673.931792
301.994620,14508.036463,20725.766376,-71859.757712
301.997112,-37306.379477,11991.336260,-68948.594820
301.999605,2812.782580,13767.830521,-75383.797003
302.002097,35381.844028,7698.141797,-79214.274493
302.004589,-19689.478057,18209.066173,-75230.577904
302.007081,-15692.365970,12879.583391,-75690.235202
302.009574,39082.873738,7994.224174,-79520.712692
302.012066,-28275.866984,15988.448347,-75230.577904
302.014558,-19689.478057,16728.654289,-75077.358804
302.017050,44856.480085,9622.677246,-79980.369991
302.019543,-28571.949361,3997.112087,-75996.673402
302.022035,3552.988522,7846.182985,-78294.959896
302.024527,13471.748144,13027.624579,-73698.386908
302.027020,-2072.576638,12583.501014,-76915.987999
302.029512,-10214.842000,9770.718434,-77222.426198
302.032004,2368.659014,12583.501014,-74924.139704
302.034496,5773.606348,14952.160028,-73391.948708
302.036989,-1036.288319,6217.729913,-77988.521696
302.039481,-740.205942,8734.430116,-78294.959896
302.041973,-1776.494261,11103.089130,-74924.139704
302.044465,-2368.659014,10066.800811,-75383.797003
302.046958,2072.576638,7994.224174,-77988.521696
302.049450,-5625.565159,16432.571912,-75077.358804
302.051942,-2960.823768,23242.466579,-73085.510509
302.054434,888.247130,13915.871710,-76762.768900
302.056927,10955.047942,5329.482782,-79061.055394
302.059419,-10066.800811,14804.118840,-72319.415011
302.061911,11399.171507,15544.324782,-74464.482406
302.064403,6365.771101,1184.329507,-81359.341888
302.066896,-32124.937883,15544.324782,-75690.235202
302.069388,9474.636058,-4145.153275,-79061.055394
302.071880,21317.931130,6957.935855,-75537.016103
302.074372,-33309.267390,4145.153275,-74464.482406
302.076865,33457.308578,-8438.347739,-83964.066581
302.079357,33901.432144,3552.988522,-77988.521696
302.081849,-46632.974346,9622.677246,-70940.443115
302.084364,4737.318029,-3849.070898,-79673.931792
302.086879,35233.802839,5625.565159,-78448.178995
302.089394,-36270.091158,17912.983796,-68029.280222
302.091908,9178.553681,2368.659014,-78448.178995
302.094423,11991.336260,148.041188,-80286.808190
302.096938,-13471.748144,11103.089130,-74770.920605
302.099453,-5773.606348,5625.565159,-74617.701505
302.101967,5329.482782,4737.318029,-78601.398095
302.104482,296.082377,9622.677246,-75537.016103
302.106997,-148.041188,8142.265362,-74617.701505
302.109512,9918.759623,5477.523971,-77375.645298
302.112026,-10955.047942,9030.512492,-75383.797003
302.114541,1924.535449,2072.576638,-77988.521696
302.117056,3701.029710,5181.441594,-76149.892501
302.119571,-8438.347739,9178.553681,-74770.920605
302.122086,-3108.864956,-1776.494261,-79520.712692
302.124600,9030.512492,-8142.265362,-78601.398095
302.127115,-5329.482782,4145.153275,-74004.825107
302.129630,-4293.194464,7550.100608,-76915.987999
302.132145,19393.395680,-3404.947333,-81052.903688
302.134659,-32569.061448,10807.006753,-72932.291410
302.137174,5033.400406,5921.647536,-77222.426198
302.139689,27535.661042,-444.123565,-79980.369991
302.142204,-22058.137072,11399.171507,-76915.987999
302.144719,2072.576638,9474.636058,-75996.673402
302.147233,25907.207970,22502.260637,-74770.920605
302.149748,-42487.821071,18209.066173,-70787.224015
302.152263,-27239.578666,12139.377449,-73238.729609
302.154778,50778.127621,15396.283594,-75537.016103
302.157292,-21317.931130,21169.889941,-73545.167808
302.159807,-14952.160028,11103.089130,-74617.701505
302.162322,32421.020260,10362.883188,-77988.521696
302.164804,-14656.077652,17024.736666,-73545.167808
302.167286,-14952.160028,13767.830521,-73391.948708
302.169769,4737.318029,7846.182985,-77682.083497
302.172251,5181.441594,7846.182985,-78907.836294
302.174733,-2960.823768,13471.748144,-73698.386908
302.177215,-2812.782580,6809.894666,-75690.235202
302.179697,2664.741391,9030.512492,-78141.740796
302.182179,592.164754,8882.471304,-78601.398095
302.184662,-5033.400406,10955.047942,-73391.948708
302.187144,-1036.288319,11547.212695,-75690.235202
302.189626,-1924.535449,9178.553681,-77375.645298
302.192108,-8882.471304,22058.137072,-74311.263306
302.194590,7254.018232,18505.148550,-74924.139704
302.197073,13175.665768,10214.842000,-77988.521696
302.199555,-11103.089130,10807.006753,-74311.263306
302.202037,9326.594869,16136.489536,-73851.606007
302.204519,-4885.359217,4145.153275,-78448.178995
302.207001,-26499.372724,15396.283594,-75230.577904
302.209484,18801.230927,-3997.112087,-80746.465489
302.211966,6365.771101,5773.606348,-75230.577904
302.214448,-18061.024985,6957.935855,-72472.634111
302.216930,32272.979071,-11843.295072,-85496.257577
302.219412,-30792.567187,7994.224174,-74924.139704
302.221894,-16876.695478,5625.565159,-74770.920605
302.224377,24426.796086,-2664.741391,-78907.836294
302.226859,13915.871710,2664.741391,-78601.398095
302.229341,-29312.155303,17320.819043,-68642.156621
302.231823,20281.642811,1036.288319,-78601.398095
302.234305,-1332.370696,-444.123565,-80593.246390
302.236788,-10807.006753,10510.924376,-75383.797003
302.239270,0.000000,2368.659014,-75690.235202
302.241752,-592.164754,1184.329507,-78601.398095
302.244234,-3552.988522,10510.924376,-76609.549800
302.246716,5477.523971,4145.153275,-76609.549800
302.249199,11991.336260,2072.576638,-77988.521696
302.251681,-7105.977043,8438.347739,-75383.797003
302.254163,-10807.006753,6661.853478,-75996.673402
302.256645,7402.059420,3256.906145,-76762.768900
302.259127,-2220.617826,2664.741391,-78448.178995
302.261609,-5921.647536,-4293.194464,-77375.645298
302.264116,6661.853478,-7402.059420,-77988.521696
302.266624,6217.729913,4441.235652,-74464.482406
302.269131,-13471.748144,5033.400406,-76915.987999
302.271639,13915.871710,-4885.359217,-81052.903688
302.274146,18801.230927,16728.654289,-73698.386908
302.276654,-25611.125593,11399.171507,-70327.566716
302.279161,-14211.954086,11251.130318,-75383.797003
302.281669,42191.738694,9918.759623,-79061.055394
302.284176,-31680.814318,16728.654289,-72472.634111
302.286684,5329.482782,9770.718434,-78754.617194
302.289191,20873.807564,9030.512492,-79520.712692
302.291699,-38342.667796,13471.748144,-73085.510509
302.294207,15988.448347,11399.171507,-76762.768900
302.296714,22354.219448,13767.830521,-77682.083497
302.299222,-13471.748144,5329.482782,-77835.302597
302.301729,-3552.988522,7846.182985,-76609.549800
302.304237,8290.306550,14508.036463,-73698.386908
302.306744,-10955.047942,11399.171507,-76456.330700
302.309252,-3108.864956,5477.523971,-79061.055394
302.311759,444.123565,15544.324782,-74158.044206
302.314267,2220.617826,14211.954086,-73391.948708
302.316774,1036.288319,3849.070898,-78141.740796
302.319282,-592.164754,10510.924376,-78601.398095
302.321789,4589.276840,14063.912898,-75230.577904
302.324297,1628.453072,11103.089130,-74924.139704
302.326804,-11399.171507,7994.224174,-76149.892501
302.329312,-3404.947333,22502.260637,-75077.358804
302.331819,8438.347739,16284.530724,-75537.016103
302.334327,7550.100608,9918.759623,-77835.302597
302.336834,-11843.295072,12731.542202,-75383.797003
302.339342,12731.542202,15544.324782,-75077.358804
302.341849,-15988.448347,7550.100608,-76303.111601
302.344357,-14063.912898,13471.748144,-75077.358804
302.346865,10214.842000,-2812.782580,-79827.150892
302.349372,18653.189738,2664.741391,-78754.617194
302.351880,-27239.578666,6809.894666,-72472.634111
302.354387,33605.349767,-8586.388927,-82278.656485
302.356895,-21614.013506,6365.771101,-76609.549800
302.359402,-28571.949361,7402.059420,-73085.510509
302.361910,42931.944636,-10658.965565,-81818.999186
302.364438,-19837.519246,4145.153275,-76915.987999
302.366966,-12139.377449,9622.677246,-74004.825107
302.369494,27831.743419,-3849.070898,-80286.808190
302.372022,-888.247130,592.164754,-79827.150892
302.374550,-8882.471304,10066.800811,-74158.044206
302.377078,-2220.617826,4589.276840,-75537.016103
302.379606,-1480.411884,740.205942,-77835.302597
302.382134,2960.823768,10214.842000,-77069.207099
302.384662,-3552.988522,6513.812290,-74004.825107
302.387190,7698.141797,2368.659014,-77988.521696
302.389718,2812.782580,7254.018232,-76609.549800
302.392246,-11399.171507,7698.141797,-75077.358804
302.394774,-3256.906145,2812.782580,-77222.426198
302.397302,-2072.576638,-4293.194464,-79827.150892
302.399830,14063.912898,-3701.029710,-78754.617194
302.402358,-5773.606348,-740.205942,-75230.577904
302.404886,-4145.153275,-1776.494261,-78448.178995
302.407414,15396.283594,888.247130,-80440.027290
302.409942,-28719.990550,-888.247130,-76456.330700
302.412470,15692.365970,-1184.329507,-80286.808190
302.414998,16136.489536,3404.947333,-77528.864398
302.417526,-31384.731941,9622.677246,-74770.920605
302.420054,20873.807564,5329.482782,-80286.808190
302.422582,38194.626607,23538.548956,-75843.454302
302.425110,-35677.926404,18949.272115,-70940.443115
302.427638,-4441.235652,8290.306550,-77528.864398
302.430166,46188.850781,20725.766376,-75230.577904
302.432694,-38786.791361,26203.290347,-68335.718422
302.435222,4441.235652,9030.512492,-77835.302597
302.437750,21465.972318,7254.018232,-78754.617194
302.440278,-17172.777854,13915.871710,-72932.291410
302.442806,444.123565,13471.748144,-73391.948708
302.445334,0.000000,9030.512492,-77988.521696
302.447862,-2072.576638,12731.542202,-76149.892501
302.450390,4441.235652,11991.336260,-75077.358804
302.452918,-2516.700203,5033.400406,-75690.235202
302.455446,-4145.153275,10066.800811,-78601.398095
302.457974,7994.224174,11991.336260,-77069.207099
302.460502,-5921.647536,11251.130318,-74158.044206
302.463030,-12139.377449,12435.459826,-74004.825107
302.465574,9622.677246,19245.354492,-77375.645298
302.468119,-1184.329507,17616.901420,-73698.386908
302.470663,-4589.276840,13471.748144,-74924.139704
302.473208,592.164754,15840.407159,-76303.111601
302.475752,5625.565159,11547.212695,-76609.549800
302.478296,5329.482782,1332.370696,-79673.931792
302.480841,-22058.137072,20725.766376,-72625.853210
302.483385,-13175.665768,2812.782580,-77375.645298
302.485930,32124.937883,2960.823768,-79673.931792
302.488474,-30792.567187,6365.771101,-73391.948708
302.491019,21465.972318,0.000000,-78601.398095
302.493563,5921.647536,2072.576638,-79214.274493
302.496108,-29312.155303,3404.947333,-74158.044206
302.498652,-10955.047942,4737.318029,-74770.920605
302.501196,37158.338288,2516.700203,-79061.055394
302.503741,-25611.125593,15396.283594,-72319.415011
302.506285,6513.812290,7994.224174,-75690.235202
302.508830,5921.647536,296.082377,-78448.178995
302.511374,-9030.512492,7846.182985,-74924.139704
302.513919,-1480.411884,6661.853478,-75690.235202
302.516463,-4441.235652,740.205942,-79061.055394
302.519007,4737.318029,7105.977043,-77835.302597
302.521552,6365.771101,4441.235652,-76762.768900
302.524096,-3701.029710,7994.224174,-74311.263306
302.526641,-4293.194464,5329.482782,-75843.454302
302.529185,-148.041188,2220.617826,-79520.712692
302.531730,-1184.329507,3701.029710,-76762.768900
302.534274,1332.370696,-5477.523971,-78754.617194
302.536818,-5921.647536,-6513.812290,-76762.768900
302.539363,10955.047942,1776.494261,-77375.645298
302.541907,-3256.906145,2664.741391,-77682.083497
302.544452,-4145.153275,-4589.276840,-78448.178995
302.546996,23538.548956,3552.988522,-79980.369991
302.549541,5181.441594,1924.535449,-77375.645298
302.552085,-37010.297100,8586.388927,-73545.167808
302.554629,35381.844028,7254.018232,-79827.150892
302.557174,-3108.864956,22946.384202,-74158.044206
302.559718,-38786.791361,15248.242405,-72472.634111
302.562263,48113.386230,9474.636058,-79673.931792
302.564807,-22206.178260,19393.395680,-75996.673402
302.567363,-33753.390955,19245.354492,-70634.004916
302.569919,22798.343014,8734.430116,-79061.055394
302.572476,13915.871710,6217.729913,-79520.712692
302.575032,-21762.054695,10807.006753,-73545.167808
302.577588,8142.265362,12139.377449,-74004.825107
302.580144,1332.370696,11103.089130,-76149.892501
302.582700,-2368.659014,9030.512492,-79061.055394
302.585256,-4885.359217,13619.789333,-73545.167808
302.587812,-2220.617826,9178.553681,-72472.634111
302.590368,11251.130318,10955.047942,-78141.740796
302.592924,-2664.741391,11399.171507,-77375.645298
302.595480,-10066.800811,15248.242405,-72012.976812
302.598037,-4885.359217,15544.324782,-73851.606007
302.600593,12879.583391,12879.583391,-78141.740796
302.603149,-6661.853478,19837.519246,-74464.482406
302.605705,148.041188,15840.407159,-73851.606007
302.608261,4145.153275,16580.613101,-75383.797003
302.610817,4145.153275,17024.736666,-76915.987999
302.613373,3849.070898,3256.906145,-78601.398095
302.615929,-24722.878463,18209.066173,-70787.224015
302.618485,-5329.482782,2072.576638,-77835.302597
302.621042,37306.379477,11547.212695,-78907.836294
302.623598,-29016.072926,1332.370696,-74770.920605
302.626154,5181.441594,5477.523971,-75537.016103
302.628710,32717.102636,-1036.288319,-78907.836294
302.631266,-48261.427418,5773.606348,-71706.538613
302.633822,7105.977043,2664.741391,-77069.207099
302.636378,35677.926404,6217.729913,-78141.740796
302.638934,-37454.420665,14804.118840,-69714.690318
302.641490,17172.777854,3701.029710,-78448.178995
302.644047,7105.977043,1036.288319,-78601.398095
302.646603,-7105.977043,4145.153275,-75996.673402
302.649159,-3256.906145,5033.400406,-76456.330700
302.651715,-4293.194464,3997.112087,-77375.645298
302.654271,3404.947333,10658.965565,-75383.797003
302.656827,9030.512492,4589.276840,-77069.207099
302.659383,-6661.853478,5773.606348,-73851.606007
302.661939,-5773.606348,8734.430116,-75077.358804
302.664495,3404.947333,1480.411884,-78907.836294
302.667051,-5773.606348,-1628.453072,-78448.178995
302.669617,2220.617826,-2812.782580,-76609.549800
302.672182,10955.047942,3552.988522,-75996.673402
302.674747,-5625.565159,-888.247130,-77682.083497
302.677313,8290.306550,-1924.535449,-78907.836294
302.679878,-9030.512492,18653.189738,-72779.072310
302.682443,-22206.178260,6809.894666,-74770.920605
302.685008,17468.860231,6365.771101,-78294.959896
302.687574,14359.995275,13027.624579,-77069.207099
302.690139,-24130.713709,8734.430116,-72932.291410
302.692704,30940.608376,21021.848753,-75690.235202
302.695270,-20725.766376,12139.377449,-78448.178995
302.697835,-41303.491564,10214.842000,-73238.729609
302.700400,28719.990550,10066.800811,-78448.178995
302.702965,11103.089130,16728.654289,-75996.673402
302.705531,-29312.155303,8882.471304,-73698.386908
302.708096,26203.290347,3108.864956,-79673.931792
302.710661,-3849.070898,16580.613101,-73391.948708
302.713227,-19985.560434,13767.830521,-72472.634111
302.715792,8142.265362,4441.235652,-79520.712692
302.718357,-740.205942,10066.800811,-77069.207099
302.720922,1332.370696,9770.718434,-74617.701505
302.723488,740.205942,9918.759623,-74617.701505
302.726053,-6069.688724,11251.130318,-77682.083497
302.728618,1036.288319,11991.336260,-78601.398095
302.731183,-5181.441594,15100.201217,-73391.948708
302.733749,-444.123565,16580.613101,-73391.948708
302.736314,6957.935855,13767.830521,-76456.330700
302.738879,-1628.453072,15248.242405,-75690.235202
302.741445,-4293.194464,19985.560434,-72779.072310
302.744010,16728.654289,17172.777854,-77375.645298
302.746575,-4293.194464,1924.535449,-80746.465489
302.749140,-20429.683999,19097.313304,-70787.224015
302.751706,-21317.931130,4441.235652,-74004.825107
302.754271,38046.585419,4589.276840,-79520.712692
302.756836,-35233.802839,2960.823768,-76149.892501
302.759402,17616.901420,888.247130,-77528.864398
302.761967,18061.024985,148.041188,-78294.959896
302.764532,-46484.933158,7994.224174,-70327.566716
302.767097,21317.931130,-1332.370696,-79673.931792
302.769663,14508.036463,6661.853478,-77528.864398
302.772235,-20429.683999,15840.407159,-73085.510509
302.774808,-2072.576638,8586.388927,-77528.864398
302.777381,9622.677246,444.123565,-77835.302597
302.779953,-7105.977043,6661.853478,-75537.016103
302.782526,-1480.411884,6513.812290,-75843.454302
302.785098,-4293.194464,740.205942,-79061.055394
302.787671,4441.235652,10362.883188,-77222.426198
302.790244,6513.812290,5921.647536,-76149.892501
302.792816,-5033.400406,7402.059420,-74004.825107
302.795389,-1332.370696,5773.606348,-75383.797003
302.797962,1776.494261,296.082377,-77682.083497
302.800534,444.123565,-2072.576638,-78907.836294
302.803107,-3701.029710,-5181.441594,-77528.864398
302.805680,8290.306550,-740.205942,-77835.302597
302.808252,-2516.700203,1332.370696,-77069.207099
302.810825,-5921.647536,-6809.894666,-77528.864398
302.813397,25018.960840,10955.047942,-77069.207099
302.815970,-23242.466579,10214.842000,-72625.853210
302.818543,-25907.207970,10214.842000,-73545.167808
302.821115,45448.644839,7105.977043,-79214.274493
302.823688,12435.459826,26055.249158,-72472.634111
302.826261,-39675.038491,22354.219448,-70480.785816
302.828833,33605.349767,11251.130318,-78907.836294
302.831406,-3256.906145,21021.848753,-74617.701505
302.833979,-36418.132346,22354.219448,-69255.033019
302.836551,30940.608376,9030.512492,-77835.302597
302.839124,-2516.700203,8142.265362,-77835.302597
302.841696,-13323.706956,7994.224174,-75996.673402
302.844269,17912.983796,9474.636058,-75230.577904
302.846842,-11991.336260,14952.160028,-75996.673402
302.849414,-10658.965565,12731.542202,-76915.987999
302.851987,-1776.494261,10214.842000,-74158.044206
302.854560,1480.411884,6513.812290,-73851.606007
302.857132,5773.606348,12583.501014,-76609.549800
302.859705,-1924.535449,12435.459826,-77835.302597
302.862278,-8734.430116,14952.160028,-75537.016103
302.864850,7994.224174,15840.407159,-74004.825107
302.867423,-2812.782580,19097.313304,-72012.976812
302.869995,-7105.977043,16580.613101,-74770.920605
302.872568,2812.782580,19097.313304,-75230.577904
302.875145,296.082377,16284.530724,-75537.016103
302.877723,12139.377449,6957.935855,-79214.274493
302.880300,-4589.276840,18061.024985,-72166.195912
302.882877,-30348.443622,9326.594869,-69714.690318
302.885454,35085.761651,9030.512492,-77988.521696
302.888032,-22502.260637,3256.906145,-77375.645298
302.890609,740.205942,4293.194464,-74617.701505
302.893186,32717.102636,-1924.535449,-78754.617194
302.895763,-42931.944636,6957.935855,-71093.662214
302.898341,-39971.120868,6365.771101,-72166.195912
302.900918,36270.091158,6217.729913,-77069.207099
302.903495,-5625.565159,11991.336260,-75230.577904
302.906072,-13175.665768,10214.842000,-75537.016103
302.908650,13619.789333,3701.029710,-76609.549800
302.911227,-3108.864956,5773.606348,-75230.577904
302.913804,-8734.430116,5773.606348,-75843.454302
302.916382,1036.288319,5477.523971,-77528.864398
302.918959,5329.482782,9178.553681,-76915.987999
302.921536,-1480.411884,592.164754,-77682.083497
302.924113,-7402.059420,1480.411884,-75996.673402
302.926691,-888.247130,5329.482782,-75383.797003
302.929268,3701.029710,1480.411884,-77375.645298
302.931845,-6365.771101,-5625.565159,-78601.398095
302.934422,9474.636058,3849.070898,-77682.083497
302.937000,-7402.059420,1776.494261,-75843.454302
302.939577,8142.265362,-6217.729913,-78448.178995
302.942154,-11103.089130,13323.706956,-72779.072310
302.944731,-17320.819043,7254.018232,-76915.987999
302.947309,23094.425390,3701.029710,-79673.931792
302.949886,34641.638086,9622.677246,-78141.740796
302.952463,-30200.402434,13323.706956,-72779.072310
302.955041,19097.313304,16728.654289,-76149.892501
302.957618,1924.535449,13175.665768,-77528.864398
302.960195,-35974.008781,10362.883188,-74004.825107
302.962772,39378.956114,13027.624579,-77069.207099
302.965350,-7254.018232,17172.777854,-74770.920605
302.967927,-23834.631332,9770.718434,-74464.482406
302.970504,29904.320057,2516.700203,-79673.931792
302.973081,-11399.171507,15248.242405,-73698.386908
302.975659,-24130.713709,16432.571912,-73391.948708
302.978240,6661.853478,6513.812290,-79061.055394
302.980821,-1036.288319,11695.253884,-76149.892501
302.983402,-2812.782580,10362.883188,-73851.606007
302.985983,3849.070898,8586.388927,-74004.825107
302.988564,-3404.947333,12287.418637,-77835.302597
302.991145,-2220.617826,13619.789333,-78294.959896
302.993726,2516.700203,15100.201217,-74311.263306
302.996307,-2220.617826,18357.107362,-70634.004916
302.998888,-2220.617826,13619.789333,-75230.577904
303.001470,-2072.576638,16432.571912,-76609.549800
303.004051,7994.224174,19689.478057,-75537.016103
303.006632,4885.359217,9326.594869,-77835.302597
303.009213,-25315.043216,16580.613101,-72932.291410
303.011794,1480.411884,-2664.741391,-77988.521696
303.014375,22206.178260,5181.441594,-77835.302597
303.016956,-28275.866984,2960.823768,-75537.016103
303.019537,32124.937883,-10510.924376,-83197.971083
303.022118,-19985.560434,3256.906145,-76609.549800
303.024699,-47817.303853,6957.935855,-70940.443115
303.027280,18061.024985,-2368.659014,-79214.274493
303.029862,18505.148550,5625.565159,-77835.302597
303.032443,-29460.196492,14804.118840,-70787.224015
303.035024,18357.107362,4441.235652,-79061.055394
303.037605,3997.112087,444.123565,-79980.369991
303.040186,-13323.706956,7550.100608,-73698.386908
303.042767,-444.123565,3256.906145,-74924.139704
303.045348,-3701.029710,-740.205942,-79673.931792
303.047929,6069.688724,8882.471304,-78294.959896
303.050510,4589.276840,5921.647536,-76149.892501
303.053091,-3997.112087,4737.318029,-73085.510509
303.055672,-3552.988522,2812.782580,-77069.207099
303.058254,7698.141797,592.164754,-77528.864398
303.060835,-6069.688724,-1776.494261,-76762.768900
303.063416,3552.988522,-592.164754,-78294.959896
303.065997,-1628.453072,1036.288319,-78141.740796
303.068578,8438.347739,-6661.853478,-77375.645298
303.071159,-6069.688724,11251.130318,-73545.167808
303.073740,-20577.725188,7994.224174,-75690.235202
303.076321,-14211.954086,12139.377449,-74924.139704
303.078902,34641.638086,6809.894666,-79367.493593
303.081486,-24722.878463,13323.706956,-73545.167808
303.084070,8142.265362,15692.365970,-77375.645298
303.086654,12879.583391,10807.006753,-79520.712692
303.089238,-40267.203245,13027.624579,-72932.291410
303.091821,26795.455100,14656.077652,-77069.207099
303.094405,11695.253884,14063.912898,-76762.768900
303.096989,-28571.949361,11103.089130,-72932.291410
303.099573,23686.590144,1480.411884,-78141.740796
303.102157,17172.777854,12435.459826,-74924.139704
303.104741,-23834.631332,14656.077652,-75383.797003
303.107324,1776.494261,5477.523971,-80440.027290
303.109908,2812.782580,9326.594869,-77222.426198
303.112492,-3108.864956,11991.336260,-73391.948708
303.115076,5181.441594,7846.182985,-75230.577904
303.117660,-5181.441594,13619.789333,-78141.740796
303.120243,-2072.576638,17616.901420,-77375.645298
303.122827,3997.112087,11991.336260,-75383.797003
303.125411,1184.329507,12139.377449,-73391.948708
303.127995,-2368.659014,15396.283594,-75383.797003
303.130579,10362.883188,21465.972318,-75690.235202
303.133163,-20725.766376,15840.407159,-74311.263306
303.135746,11991.336260,13619.789333,-76762.768900
303.138330,20133.601622,14804.118840,-75077.358804
303.140914,-35974.008781,11547.212695,-68795.375720
303.143498,28275.866984,8142.265362,-77375.645298
303.146082,-3256.906145,-3404.947333,-80133.589091
303.148666,-34641.638086,5329.482782,-72472.634111
303.151249,47373.180288,-8142.265362,-80899.684589
303.153833,36418.132346,-13175.665768,-83810.847481
303.156417,-43672.150578,4885.359217,-71553.319513
303.159001,15840.407159,7254.018232,-77835.302597
303.161585,17616.901420,7698.141797,-77835.302597
303.164169,-17320.819043,11103.089130,-74617.701505
303.166752,5033.400406,4145.153275,-75996.673402
303.169336,1480.411884,2072.576638,-75383.797003
303.171920,-5773.606348,3701.029710,-76915.987999
303.174504,-1628.453072,4589.276840,-78601.398095
303.177088,-1480.411884,4145.153275,-77069.207099
303.179672,2812.782580,2516.700203,-76456.330700
303.182255,4441.235652,4885.359217,-75690.235202
303.184840,-8586.388927,3108.864956,-74311.263306
303.187425,6069.688724,-3404.947333,-78754.617194
303.190010,7105.977043,3552.988522,-77988.521696
303.192595,-18061.024985,3404.947333,-75537.016103
303.195180,18209.066173,-6809.894666,-77988.521696
303.197765,-6069.688724,13619.789333,-72779.072310
303.200350,-27979.784608,6661.853478,-75537.016103
303.202935,23242.466579,3701.029710,-79673.931792
303.205521,42783.903448,9326.594869,-78754.617194
303.208106,-33309.267390,12879.583391,-72472.634111
303.210691,15988.448347,14656.077652,-77988.521696
303.213276,5329.482782,15396.283594,-77682.083497
303.215861,-34789.679274,13027.624579,-72779.072310
303.218446,36862.255912,14508.036463,-76609.549800
303.221031,-4885.359217,17024.736666,-75537.016103
303.223616,-23686.590144,9770.718434,-74770.920605
303.226201,25759.166782,3256.906145,-78294.959896
303.228786,8142.265362,12435.459826,-74617.701505
303.231371,-19689.478057,12879.583391,-75383.797003
303.233956,9474.636058,4589.276840,-80746.465489
303.236541,-6069.688724,15248.242405,-74311.263306
303.239126,-5921.647536,11991.336260,-72932.291410
303.241711,10510.924376,5625.565159,-77528.864398
303.244296,-9474.636058,16136.489536,-76762.768900
303.246881,444.123565,14952.160028,-77682.083497
303.249466,11251.130318,10362.883188,-77222.426198
303.252051,-5329.482782,14804.118840,-72779.072310
303.254636,-10510.924376,19393.395680,-73391.948708
303.257221,15248.242405,19245.354492,-75843.454302
303.259806,-1628.453072,11547.212695,-76609.549800
303.262391,-24870.919651,22502.260637,-72319.415011
303.264976,20133.601622,-3997.112087,-80593.246390
303.267561,6661.853478,4145.153275,-77682.083497
303.270146,-18653.189738,4885.359217,-74004.825107
303.272731,29608.237680,-17468.860231,-83810.847481
303.275316,-37602.461854,4441.235652,-74924.139704
303.277901,-444.123565,-3997.112087,-79827.150892
303.280486,35529.885216,-9622.677246,-80440.027290
303.283071,-4885.359217,2516.700203,-77222.426198
303.285656,-22946.384202,12287.418637,-73238.729609
303.288241,22502.260637,3552.988522,-78754.617194
303.290826,10066.800811,2812.782580,-78907.836294
303.293412,-10066.800811,6957.935855,-75537.016103
303.295997,1332.370696,5625.565159,-74464.482406
303.298583,-5477.523971,4293.194464,-76456.330700
303.301168,-148.041188,5181.441594,-78141.740796
303.303754,7550.100608,4145.153275,-78141.740796
303.306339,-6217.729913,3108.864956,-74924.139704
303.308924,-4885.359217,4441.235652,-74004.825107
303.311510,4145.153275,-148.041188,-77222.426198
303.314095,1480.411884,2812.782580,-78294.959896
303.316681,-9918.759623,1036.288319,-77222.426198
303.319266,14952.160028,-5625.565159,-78448.178995
303.321852,-15840.407159,9770.718434,-72472.634111
303.324437,-15692.365970,3108.864956,-76762.768900
303.327022,26499.372724,1628.453072,-80899.684589
303.329608,-1776.494261,14063.912898,-77528.864398
303.332193,-35233.802839,15100.201217,-70480.785816
303.334779,21021.848753,15988.448347,-77222.426198
303.337364,444.123565,14804.118840,-77375.645298
303.339949,-32865.143825,13915.871710,-72472.634111
303.342535,42783.903448,16432.571912,-74770.920605
303.345120,-13175.665768,18209.066173,-74617.701505
303.347706,-23242.466579,9326.594869,-75843.454302
303.350291,28423.908173,2072.576638,-79673.931792
303.352877,-10510.924376,12287.418637,-72472.634111
303.355462,-4589.276840,11251.130318,-74924.139704
303.358047,8438.347739,10362.883188,-78294.959896
303.360633,-5181.441594,13471.748144,-74924.139704
303.363218,-4145.153275,12435.459826,-73698.386908
303.365804,6217.729913,8142.265362,-75843.454302
303.368389,-5033.400406,15840.407159,-77222.426198
303.370975,-740.205942,13619.789333,-77835.302597
303.373561,10066.800811,10955.047942,-75537.016103
303.376148,-4293.194464,13471.748144,-73391.948708
303.378734,-7846.182985,17468.860231,-73545.167808
303.381320,13767.830521,14359.995275,-78448.178995
303.383906,14804.118840,6365.771101,-80286.808190
303.386492,-16728.654289,25759.166782,-71400.100414
303.389078,-21317.931130,2368.659014,-75383.797003
303.391665,37750.503042,592.164754,-80133.589091
303.394251,-35677.926404,4293.194464,-73698.386908
303.396837,15248.242405,-3997.112087,-79520.712692
303.399423,13471.748144,-2220.617826,-80133.589091
303.402009,-46484.933158,8882.471304,-70634.004916
303.404595,29756.278868,-5329.482782,-80133.589091
303.407182,9326.594869,1332.370696,-78294.959896
303.409768,-18801.230927,15248.242405,-73391.948708
303.412354,-5033.400406,11251.130318,-76762.768900
303.414940,13027.624579,2368.659014,-78294.959896
303.417526,-4441.235652,7105.977043,-75996.673402
303.420112,148.041188,8734.430116,-74158.044206
303.422698,-6661.853478,2072.576638,-76149.892501
303.425285,-1184.329507,4885.359217,-78754.617194
303.427871,13027.624579,2368.659014,-77682.083497
303.430457,-9474.636058,3701.029710,-73851.606007
303.433043,-1332.370696,2664.741391,-74158.044206
303.435629,11103.089130,2516.700203,-77528.864398
303.438215,-2072.576638,2220.617826,-78601.398095
303.440802,-4441.235652,-296.082377,-77069.207099
303.443388,1036.288319,-6365.771101,-77069.207099
303.445974,15248.242405,4737.318029,-76762.768900
303.448560,-14656.077652,1184.329507,-75843.454302
303.451146,-28423.908173,10658.965565,-73545.167808
303.453732,45892.768404,8142.265362,-80133.589091
303.456319,-28868.031738,19985.560434,-72012.976812
303.458905,-40859.367998,21317.931130,-70940.443115
303.461491,46484.933158,13619.789333,-79827.150892
303.464077,-23094.425390,22502.260637,-73545.167808
303.466663,-26055.249158,20577.725188,-71859.757712
303.469249,41155.450375,4441.235652,-80593.246390
303.471836,-21614.013506,8142.265362,-77069.207099
303.474421,-3404.947333,5329.482782,-75996.673402
303.477005,21762.054695,11991.336260,-73851.606007
303.479590,-22502.260637,13767.830521,-74770.920605
303.482175,4441.235652,9622.677246,-79980.369991
303.484760,3701.029710,12879.583391,-75077.358804
303.487345,-3997.112087,11843.295072,-71706.538613
303.489930,0.000000,13323.706956,-75996.673402
303.492515,1924.535449,10362.883188,-79980.369991
303.495100,5181.441594,12435.459826,-76762.768900
303.497685,-2516.700203,13767.830521,-74464.482406
303.500270,-5921.647536,13915.871710,-74311.263306
303.502855,12731.542202,16580.613101,-76303.111601
303.505440,-10658.965565,14508.036463,-75537.016103
303.508025,-14063.912898,19393.395680,-72779.072310
303.510609,12287.418637,-1036.288319,-80899.684589
303.513194,18801.230927,3256.906145,-79520.712692
303.515779,-30644.525999,1480.411884,-73391.948708
303.518364,33309.267390,-14804.118840,-81206.122788
303.520949,-30200.402434,2220.617826,-76149.892501
303.523534,-18357.107362,-1480.411884,-78294.959896
303.526119,43820.191766,-13619.789333,-83657.628382
303.528704,-20429.683999,3256.906145,-75996.673402
303.531289,-13767.830521,7994.224174,-74924.139704
303.533874,23242.466579,3997.112087,-79827.150892
303.536459,10807.006753,3701.029710,-79980.369991
303.539044,-11251.130318,8438.347739,-74004.825107
303.541629,-5477.523971,740.205942,-76303.111601
303.544214,-2072.576638,1184.329507,-78754.617194
303.546798,7698.141797,5921.647536,-78754.617194
303.549383,-2368.659014,4441.235652,-75230.577904
303.551968,-5625.565159,2516.700203,-74004.825107
303.554553,5773.606348,888.247130,-76303.111601
303.557138,-888.247130,5477.523971,-75996.673402
303.559723,-8438.347739,3108.864956,-77375.645298
303.562308,6217.729913,-3701.029710,-78907.836294
303.564893,-8882.471304,-7105.977043,-77682.083497
303.567478,12435.459826,592.164754,-78907.836294
303.570063,-2368.659014,-2664.741391,-77682.083497
303.572648,-26203.290347,9622.677246,-75077.358804
303.575233,28868.031738,11103.089130,-79061.055394
303.577816,-13323.706956,21317.931130,-72625.853210
303.580400,-17172.777854,15100.201217,-76762.768900
303.582984,32865.143825,11991.336260,-81206.122788
303.585568,-1184.329507,25759.166782,-72166.195912
303.588151,-34049.473332,21762.054695,-69101.813920
303.590735,29164.114115,4885.359217,-81052.903688
303.593319,-4589.276840,5625.565159,-78448.178995
303.595903,-15248.242405,8882.471304,-72625.853210
303.598486,18801.230927,11103.089130,-73698.386908
303.601070,-8142.265362,13915.871710,-75843.454302
303.603654,-6957.935855,10214.842000,-78907.836294
303.606238,2960.823768,13175.665768,-74924.139704
303.608821,-6661.853478,14656.077652,-72472.634111
303.611405,148.041188,13027.624579,-76915.987999
303.613989,5329.482782,10510.924376,-78907.836294
303.616573,0.000000,13915.871710,-75690.235202
303.619156,-740.205942,15544.324782,-74770.920605
303.621740,-2960.823768,17616.901420,-74617.701505
303.624324,-4737.318029,16284.530724,-74617.701505
303.626908,16876.695478,10807.006753,-76915.987999
303.629492,-14656.077652,25759.166782,-70940.443115
303.632075,-26795.455100,6513.812290,-75230.577904
303.634659,44412.356520,7402.059420,-78294.959896
303.637243,-12879.583391,-2516.700203,-76303.111601
303.639827,-23390.507767,1332.370696,-72779.072310
303.642410,38934.832549,-7105.977043,-81359.341888
303.644994,-27683.702231,1184.329507,-75230.577904
303.647578,-7550.100608,2072.576638,-75996.673402
303.650162,28571.949361,4145.153275,-77682.083497
303.652745,-17172.777854,15248.242405,-73085.510509
303.655329,-6661.853478,8882.471304,-76762.768900
303.657913,18061.024985,5773.606348,-78601.398095
303.660497,5329.482782,4589.276840,-76762.768900
303.663080,-5477.523971,6069.688724,-75230.577904
303.665664,-6217.729913,2664.741391,-77375.645298
303.668248,2812.782580,6957.935855,-75996.673402
303.670832,6365.771101,0.000000,-77682.083497
303.673415,-3701.029710,1924.535449,-73391.948708
303.675999,2664.741391,3552.988522,-75690.235202
303.678583,296.082377,4441.235652,-77682.083497
303.681166,-9030.512492,444.123565,-77988.521696
303.683749,15544.324782,-5625.565159,-78601.398095
303.686331,18209.066173,7402.059420,-75537.016103
303.688914,-24574.837274,1332.370696,-75230.577904
303.691497,-19837.519246,6957.935855,-75843.454302
303.694080,46781.015534,10214.842000,-78601.398095
303.696663,-34345.555709,19541.436869,-71553.319513
303.699246,4293.194464,16728.654289,-77375.645298
303.701829,16580.613101,13175.665768,-79827.150892
303.704411,-35974.008781,15840.407159,-72012.976812
303.706994,27979.784608,16284.530724,-75996.673402
303.709577,6809.894666,15692.365970,-78754.617194
303.712160,5329.482782,4885.359217,-79673.931792
303.714743,-18949.272115,8734.430116,-72472.634111
303.717326,15544.324782,11399.171507,-72625.853210
303.719908,-2220.617826,12139.377449,-75996.673402
303.722491,-11399.171507,12879.583391,-77988.521696
303.725074,4589.276840,8438.347739,-77069.207099
303.727657,-5329.482782,13619.789333,-73545.167808
303.730240,148.041188,13175.665768,-74924.139704
303.732823,9770.718434,8882.471304,-80899.684589
303.735405,-3997.112087,14508.036463,-76609.549800
303.737988,-5921.647536,17912.983796,-72779.072310
303.740571,14359.995275,18653.189738,-75230.577904
303.743154,-15544.324782,14063.912898,-74311.263306
303.745737,-3108.864956,18653.189738,-73545.167808
303.748320,34049.473332,16284.530724,-75843.454302
303.750903,-32865.143825,17172.777854,-71400.100414
303.753485,20577.725188,4885.359217,-77835.302597
303.756068,9474.636058,-9474.636058,-79827.150892
303.758651,-42635.862259,5625.565159,-68795.375720
303.761234,41895.656317,-11843.295072,-82431.875585
303.763817,38342.667796,-16284.530724,-85036.600278
303.766400,-38046.585419,4885.359217,-72932.291410
303.768982,7846.182985,6809.894666,-77682.083497
303.771565,22650.301825,4737.318029,-79520.712692
303.774148,-20281.642811,13175.665768,-74158.044206
303.776731,4589.276840,5773.606348,-76609.549800
303.779314,4885.359217,2812.782580,-76149.892501
303.781897,-2516.700203,5181.441594,-76609.549800
303.784440,-4441.235652,3256.906145,-77528.864398
303.786983,-3404.947333,2516.700203,-75690.235202
303.789527,9030.512492,1036.288319,-76609.549800
303.792070,2516.700203,2072.576638,-76303.111601
303.794613,-12583.501014,3552.988522,-75690.235202
303.797157,-148.041188,1332.370696,-77988.521696
303.799700,13471.748144,-1924.535449,-80133.589091
303.802244,-22502.260637,4293.194464,-73851.606007
303.804787,-2220.617826,-1480.411884,-79367.493593
303.807330,25759.166782,-6069.688724,-80593.246390
303.809874,-19393.395680,8586.388927,-77835.302597
303.812417,148.041188,11843.295072,-72932.291410
303.814960,35974.008781,21317.931130,-77528.864398
303.817504,-24574.837274,19689.478057,-74770.920605
303.820047,-13323.706956,13323.706956,-74617.701505
303.822590,46929.056723,21465.972318,-74617.701505
303.825134,-30348.443622,23538.548956,-68795.375720
303.827677,-4885.359217,8290.306550,-78141.740796
303.830220,22650.301825,2960.823768,-80899.684589
303.832764,-11399.171507,9326.594869,-74004.825107
303.835307,1480.411884,10510.924376,-73545.167808
303.837851,3701.029710,8734.430116,-79061.055394
303.840394,-8290.306550,11843.295072,-76456.330700
303.842937,-1480.411884,11695.253884,-74770.920605
303.845481,3997.112087,14804.118840,-72319.415011
303.848024,148.041188,14508.036463,-77835.302597
303.850567,1036.288319,9770.718434,-79061.055394
303.853111,-1036.288319,16136.489536,-75383.797003
303.855654,-4145.153275,23390.507767,-72319.415011
303.858197,-2368.659014,13767.830521,-75843.454302
303.860741,18357.107362,7254.018232,-80133.589091
303.863284,-20725.766376,27683.702231,-72932.291410
303.865828,-40119.162056,16580.613101,-68795.375720
303.868371,42931.944636,6069.688724,-78754.617194
303.870914,-20281.642811,-1480.411884,-75843.454302
303.873458,-16728.654289,2960.823768,-71859.757712
303.876001,38638.750172,-3997.112087,-78448.178995
303.878544,-37010.297100,4589.276840,-74004.825107
303.881088,-148.041188,3256.906145,-76609.549800
303.883631,30200.402434,1924.535449,-78601.398095
303.886181,-22946.384202,14952.160028,-72932.291410
303.888731,-18949.272115,12139.377449,-73698.386908
303.891281,13767.830521,1480.411884,-78141.740796
303.893831,2220.617826,7402.059420,-75537.016103
303.896381,-6957.935855,5477.523971,-75843.454302
303.898931,-6217.729913,2812.782580,-76303.111601
303.901481,6513.812290,4293.194464,-77069.207099
303.904031,6069.688724,1628.453072,-77069.207099
303.906581,-9918.759623,-740.205942,-74158.044206
303.909131,9622.677246,3849.070898,-75843.454302
303.911681,-4885.359217,4441.235652,-78294.959896
303.914231,5329.482782,-2516.700203,-78294.959896
303.916781,-18653.189738,8586.388927,-73545.167808
303.919331,-10658.965565,-740.205942,-78294.959896
303.921881,24870.919651,-7105.977043,-81972.218286
303.924431,-8438.347739,9918.759623,-77682.083497
303.926981,-10955.047942,12139.377449,-72779.072310
303.929531,32717.102636,26647.413912,-76303.111601
303.932081,-37750.503042,24278.754898,-70940.443115
303.934631,14804.118840,15544.324782,-77069.207099
303.937181,25907.207970,8882.471304,-74464.482406
303.939731,-16580.613101,21910.095883,-71553.319513
303.942281,-19245.354492,10362.883188,-76609.549800
303.944831,21465.972318,3997.112087,-80133.589091
303.947381,-6217.729913,9622.677246,-74311.263306
303.949931,-9030.512492,10510.924376,-72779.072310
303.952481,9178.553681,9178.553681,-78294.959896
303.955031,-6661.853478,12139.377449,-76609.549800
303.957581,-444.123565,9770.718434,-76609.549800
303.960131,2516.700203,16284.530724,-71246.881314
303.962681,-740.205942,14211.954086,-75996.673402
303.965231,-2072.576638,11843.295072,-79367.493593
303.967781,-3404.947333,13619.789333,-75690.235202
303.970331,13175.665768,24574.837274,-73851.606007
303.972881,-15988.448347,15544.324782,-73698.386908
303.975431,-1776.494261,12435.459826,-75690.235202
303.977981,33753.390955,20725.766376,-75077.358804
303.980531,-37750.503042,20577.725188,-68335.718422
303.983081,26647.413912,4145.153275,-78754.617194
303.985631,2220.617826,-4589.276840,-78601.398095
303.988187,-45892.768404,4441.235652,-72472.634111
303.990743,17024.736666,-10807.006753,-81206.122788
303.993298,30052.361245,-13323.706956,-85036.600278
303.995854,-32569.061448,6365.771101,-72166.195912
303.998410,4589.276840,3256.906145,-77222.426198
304.000966,16580.613101,6809.894666,-77835.302597
304.003522,-16432.571912,12879.583391,-74158.044206
304.006078,4589.276840,1628.453072,-77988.521696
304.008634,10066.800811,5477.523971,-75996.673402
304.011189,-5033.400406,5181.441594,-75996.673402
304.013745,-11103.089130,4737.318029,-78141.740796
304.016301,888.247130,1332.370696,-77682.083497
304.018857,14952.160028,2368.659014,-75843.454302
304.021413,-13915.871710,3256.906145,-74311.263306
304.023969,-6217.729913,-740.205942,-77528.864398
304.026525,11843.295072,-1184.329507,-78754.617194
304.029080,-13027.624579,-7105.977043,-77682.083497
304.031636,18949.272115,2072.576638,-78601.398095
304.034192,-12731.542202,-1184.329507,-77069.207099
304.036748,-34197.514520,5773.606348,-73391.948708
304.039304,20873.807564,6069.688724,-79061.055394
304.041860,9030.512492,26795.455100,-75690.235202
304.044416,-34641.638086,25759.166782,-72625.853210
304.046971,35677.926404,11251.130318,-80440.027290
304.049527,-19245.354492,20577.725188,-72472.634111
304.052083,-14804.118840,21317.931130,-71246.881314
304.054639,27831.743419,6957.935855,-78907.836294
304.057195,-13175.665768,7846.182985,-77528.864398
304.059751,-3404.947333,10066.800811,-75690.235202
304.062307,10214.842000,8734.430116,-74770.920605
304.064862,1480.411884,12583.501014,-75996.673402
304.067418,-10510.924376,11103.089130,-76915.987999
304.069974,4145.153275,9326.594869,-76303.111601
304.072530,740.205942,16876.695478,-72319.415011
304.075086,-5329.482782,15100.201217,-74617.701505
304.077642,888.247130,8586.388927,-79827.150892
304.080198,296.082377,16432.571912,-76762.768900
304.082754,-1628.453072,23242.466579,-73085.510509
304.085309,-8586.388927,15248.242405,-73698.386908
304.087865,17024.736666,10658.965565,-78294.959896
304.090389,34937.720462,19245.354492,-76609.549800
304.092912,-38638.750172,16432.571912,-70634.004916
304.095436,26055.249158,7254.018232,-78601.398095
304.097959,1924.535449,-6957.935855,-78907.836294
304.100482,-37898.544230,-444.123565,-70480.785816
304.103006,44412.356520,-8586.388927,-80899.684589
304.105529,-17024.736666,0.000000,-76915.987999
304.108053,-22650.301825,5477.523971,-74311.263306
304.110576,31088.649564,4589.276840,-77528.864398
304.113100,16432.571912,8734.430116,-77682.083497
304.115623,-21317.931130,10955.047942,-74770.920605
304.118147,12731.542202,3108.864956,-77375.645298
304.120670,5181.441594,7698.141797,-76303.111601
304.123194,-10362.883188,4737.318029,-75537.016103
304.125717,-2812.782580,-1480.411884,-78601.398095
304.128240,5033.400406,296.082377,-77682.083497
304.130764,4441.235652,5329.482782,-74617.701505
304.133287,-8290.306550,2812.782580,-74924.139704
304.135811,-2960.823768,592.164754,-76915.987999
304.138334,13323.706956,-3256.906145,-78141.740796
304.140858,-15544.324782,10214.842000,-74770.920605
304.143381,-15248.242405,-2072.576638,-77988.521696
304.145905,25167.002028,-6809.894666,-81665.780087
304.148428,-5921.647536,11547.212695,-77069.207099
304.150951,-15248.242405,9918.759623,-72625.853210
304.153475,36122.049970,27387.619854,-77222.426198
304.155998,-37010.297100,27239.578666,-70787.224015
304.158522,12435.459826,15248.242405,-77682.083497
304.161045,23834.631332,22354.219448,-72625.853210
304.163569,-20281.642811,22354.219448,-70787.224015
304.166092,-16136.489536,11991.336260,-75996.673402
304.168616,18505.148550,2664.741391,-80286.808190
304.171139,-5181.441594,11103.089130,-74617.701505
304.173663,-3849.070898,11399.171507,-72625.853210
304.176186,6069.688724,7550.100608,-78601.398095
304.178709,-6217.729913,16580.613101,-74924.139704
304.181233,-3849.070898,11251.130318,-75996.673402
304.183756,7698.141797,11547.212695,-74311.263306
304.186280,3256.906145,15840.407159,-77375.645298
304.188803,-2664.741391,17320.819043,-79367.493593
304.191338,-10807.006753,20429.683999,-72932.291410
304.193873,4885.359217,18357.107362,-75537.016103
304.196407,18949.272115,8882.471304,-77988.521696
304.198942,-22354.219448,23242.466579,-71553.319513
304.201477,-16728.654289,5477.523971,-76762.768900
304.204011,42487.821071,6957.935855,-79520.712692
304.206546,-44856.480085,740.205942,-72625.853210
304.209081,28275.866984,-10658.965565,-79520.712692
304.211615,-4589.276840,-2516.700203,-77222.426198
304.214150,-42487.821071,6069.688724,-71706.538613
304.216685,9030.512492,1332.370696,-79061.055394
304.219219,25167.002028,4145.153275,-78601.398095
304.221754,-22946.384202,14063.912898,-72166.195912
304.224289,-592.164754,4441.235652,-78448.178995
304.226823,18505.148550,6069.688724,-79061.055394
304.229358,-12435.459826,13471.748144,-74311.263306
304.231893,-2960.823768,-296.082377,-77528.864398
304.234428,6661.853478,888.247130,-80440.027290
304.236962,740.205942,4293.194464,-78294.959896
304.239497,-5477.523971,1924.535449,-73851.606007
304.242032,1332.370696,592.164754,-75690.235202
304.244566,0.000000,1332.370696,-77528.864398
304.247101,-148.041188,-740.205942,-76456.330700
304.249636,-10510.924376,-7994.224174,-77069.207099
304.252170,19985.560434,2368.659014,-79061.055394
304.254705,-1480.411884,-2516.700203,-77682.083497
304.257240,-38638.750172,7698.141797,-72932.291410
304.259774,36122.049970,6661.853478,-79520.712692
304.262309,-12139.377449,29164.114115,-74311.263306
304.264844,-38490.708984,27239.578666,-71706.538613
304.267378,29608.237680,16284.530724,-78907.836294
304.269913,-4441.235652,22058.137072,-72625.853210
304.272448,-27091.537477,18801.230927,-71859.757712
304.274982,27535.661042,6957.935855,-78907.836294
304.277517,-11547.212695,7105.977043,-77835.302597
304.280052,-9474.636058,9622.677246,-74158.044206
304.282586,12139.377449,9030.512492,-74158.044206
304.285121,-1628.453072,12139.377449,-74311.263306
304.287656,-5773.606348,14656.077652,-75537.016103
304.290191,-1332.370696,11991.336260,-74311.263306
304.292698,5477.523971,13175.665768,-73391.948708
304.295206,2368.659014,14508.036463,-77835.302597
304.297713,-6365.771101,13619.789333,-77069.207099
304.300221,-5033.400406,19541.436869,-76915.987999
304.302729,8734.430116,19837.519246,-74617.701505
304.305237,9030.512492,7105.977043,-77375.645298
304.307744,-26499.372724,20725.766376,-72319.415011
304.310252,7994.224174,1628.453072,-80593.246390
304.312760,45448.644839,8142.265362,-79214.274493
304.315267,-39526.997303,1184.329507,-73851.606007
304.317775,15396.283594,-3256.906145,-76762.768900
304.320283,11991.336260,-2960.823768,-76609.549800
304.322790,-41007.409187,4737.318029,-72319.415011
304.325298,30496.484810,-2960.823768,-79520.712692
304.327806,3256.906145,1776.494261,-78907.836294
304.330314,-25018.960840,13471.748144,-71706.538613
304.332821,11251.130318,3849.070898,-79214.274493
304.335329,5329.482782,5921.647536,-78754.617194
304.337837,-8586.388927,14063.912898,-73545.167808
304.340344,-5181.441594,3849.070898,-76303.111601
304.342852,2960.823768,740.205942,-80133.589091
304.345360,2664.741391,5921.647536,-77988.521696
304.347867,2220.617826,-740.205942,-76915.987999
304.350375,888.247130,-444.123565,-76303.111601
304.352883,-3997.112087,3256.906145,-75690.235202
304.355391,4145.153275,-3849.070898,-77528.864398
304.357898,-13619.789333,-5033.400406,-75996.673402
304.360406,14211.954086,1924.535449,-78448.178995
304.362914,20429.683999,-5477.523971,-80746.465489
304.365421,-9918.759623,8290.306550,-77835.302597
304.367929,-9178.553681,11547.212695,-72166.195912
304.370437,28275.866984,28423.908173,-75843.454302
304.372944,-32124.937883,27387.619854,-72166.195912
304.375452,18505.148550,17764.942608,-79673.931792
304.377960,13175.665768,23390.507767,-72625.853210
304.380468,-33013.185013,20577.725188,-69867.909418
304.382975,21910.095883,5477.523971,-78907.836294
304.385483,296.082377,6957.935855,-78294.959896
304.387991,-13767.830521,12583.501014,-74158.044206
304.390498,-148.041188,12435.459826,-72932.291410
304.393021,4737.318029,5921.647536,-78448.178995
304.395543,-888.247130,13323.706956,-74617.701505
304.398066,-3997.112087,16284.530724,-73698.386908
304.400588,-2516.700203,11251.130318,-73698.386908
304.403111,6365.771101,11991.336260,-79061.055394
304.405634,-2960.823768,17468.860231,-76915.987999
304.408156,-1184.329507,21317.931130,-75996.673402
304.410679,-3108.864956,21614.013506,-75537.016103
304.413201,-3849.070898,18061.024985,-74158.044206
304.415724,24870.919651,10807.006753,-78907.836294
304.418246,-22650.301825,11843.295072,-74004.825107
304.420769,15248.242405,11251.130318,-76456.330700
304.423291,4145.153275,-12287.418637,-80899.684589
304.425814,-35233.802839,-2516.700203,-71246.881314
304.428336,38342.667796,-6809.894666,-79367.493593
304.430859,-11695.253884,-4145.153275,-77222.426198
304.433381,-22798.343014,5181.441594,-74924.139704
304.435904,6809.894666,7846.182985,-76456.330700
304.438426,15840.407159,8882.471304,-77069.207099
304.440949,-16876.695478,7994.224174,-75230.577904
304.443472,5625.565159,5329.482782,-77375.645298
304.445994,4145.153275,3108.864956,-78448.178995
304.448517,-6957.935855,3997.112087,-76609.549800
304.451039,3997.112087,740.205942,-79827.150892
304.453562,1628.453072,148.041188,-76609.549800
304.456084,-5181.441594,3701.029710,-75996.673402
304.458607,-1036.288319,888.247130,-74158.044206
304.461129,7254.018232,-3701.029710,-77375.645298
304.463652,-11103.089130,-5477.523971,-77375.645298
304.466174,17468.860231,888.247130,-78907.836294
304.468697,-444.123565,-2516.700203,-78294.959896
304.471219,-38342.667796,8142.265362,-71859.757712
304.473742,36418.132346,3849.070898,-80286.808190
304.476264,-13175.665768,22946.384202,-71859.757712
304.478787,-21317.931130,22946.384202,-77528.864398
304.481309,30644.525999,11991.336260,-82431.875585
304.483832,-32569.061448,18801.230927,-73698.386908
304.486355,-30348.443622,19541.436869,-72319.415011
304.488877,28719.990550,3404.947333,-78907.836294
304.491400,-10214.842000,7105.977043,-78294.959896
304.493935,-9178.553681,11399.171507,-73391.948708
304.496470,8142.265362,8438.347739,-75077.358804
304.499005,-2220.617826,7254.018232,-76456.330700
304.501540,888.247130,13471.748144,-77835.302597
304.504075,-3404.947333,10510.924376,-74464.482406
304.506610,-444.123565,14804.118840,-74311.263306
304.509145,3849.070898,14063.912898,-76915.987999
304.511680,-1776.494261,15840.407159,-77528.864398
304.514215,1184.329507,20725.766376,-75537.016103
304.516750,-7846.182985,19837.519246,-72625.853210
304.519285,2220.617826,14804.118840,-73851.606007
304.521820,23982.672521,18357.107362,-76762.768900
304.524355,-29312.155303,16728.654289,-71246.881314
304.526890,25907.207970,12731.542202,-76303.111601
304.529425,-10955.047942,-6957.935855,-78141.740796
304.531960,-22502.260637,-888.247130,-72166.195912
304.534495,33605.349767,-9918.759623,-80593.246390
304.537030,8438.347739,-7550.100608,-80593.246390
304.539565,-27683.702231,5329.482782,-74464.482406
304.542100,-7846.182985,8290.306550,-75230.577904
304.544635,21169.889941,7994.224174,-78141.740796
304.547170,-17024.736666,9770.718434,-75383.797003
304.549705,4885.359217,7105.977043,-77375.645298
304.552240,11695.253884,6069.688724,-77375.645298
304.554775,-11695.253884,4589.276840,-76456.330700
304.557310,6217.729913,1628.453072,-80286.808190
304.559845,3404.947333,1480.411884,-76609.549800
304.562380,-6957.935855,3552.988522,-73545.167808
304.564915,-2516.700203,-148.041188,-76149.892501
304.567450,10066.800811,-6365.771101,-77528.864398
304.569985,-13323.706956,7402.059420,-74770.920605
304.572520,-10510.924376,592.164754,-77528.864398
304.575064,24426.796086,-4441.235652,-80899.684589
304.577609,-9918.759623,10510.924376,-76915.987999
304.580154,-14656.077652,11843.295072,-71553.319513
304.582699,32569.061448,29016.072926,-75230.577904
304.585244,-33161.226202,30496.484810,-71859.757712
304.587788,-17616.901420,18209.066173,-73851.606007
304.590333,36862.255912,19837.519246,-73391.948708
304.592878,-22502.260637,18209.066173,-72012.976812
304.595423,-9622.677246,6957.935855,-78294.959896
304.597968,17616.901420,4885.359217,-78294.959896
304.600512,-9326.594869,11695.253884,-74924.139704
304.603057,-740.205942,13619.789333,-73085.510509
304.605602,888.247130,7994.224174,-77988.521696
304.608147,-592.164754,8882.471304,-75690.235202
304.610691,3552.988522,15988.448347,-74464.482406
304.613236,0.000000,16876.695478,-74464.482406
304.615781,-6365.771101,15248.242405,-76762.768900
304.618326,5329.482782,20873.807564,-78294.959896
304.620871,-5773.606348,23686.590144,-71859.757712
304.623415,6957.935855,11547.212695,-75996.673402
304.625960,-7254.018232,21614.013506,-74770.920605
304.628505,-17764.942608,6957.935855,-76456.330700
304.631050,29608.237680,7105.977043,-79673.931792
304.633595,-29164.114115,444.123565,-75230.577904
304.636139,-2664.741391,-1924.535449,-74770.920605
304.638684,23982.672521,-4441.235652,-77682.083497
304.641229,-41599.573940,1036.288319,-71553.319513
304.643774,20725.766376,-1776.494261,-79214.274493
304.646319,16876.695478,5625.565159,-77682.083497
304.648863,-24278.754898,12879.583391,-72012.976812
304.651408,5033.400406,5329.482782,-77069.207099
304.653953,7105.977043,6513.812290,-78294.959896
304.656498,-10658.965565,3849.070898,-76609.549800
304.659042,3997.112087,3404.947333,-76915.987999
304.661587,1184.329507,4885.359217,-78448.178995
304.664132,1924.535449,1036.288319,-78601.398095
304.666677,5181.441594,148.041188,-77375.645298
304.669222,-9918.759623,1480.411884,-73391.948708
304.671766,2664.741391,-2516.700203,-76149.892501
304.674311,-6365.771101,-6661.853478,-77069.207099
304.676864,9622.677246,148.041188,-79520.712692
304.679416,5477.523971,-3849.070898,-78907.836294
304.681969,-34641.638086,6957.935855,-72472.634111
304.684522,26943.496289,6957.935855,-78601.398095
304.687074,19837.519246,28719.990550,-74464.482406
304.689627,-30792.567187,26943.496289,-73545.167808
304.692180,28275.866984,20281.642811,-78907.836294
304.694732,-2960.823768,22354.219448,-73851.606007
304.697285,-22206.178260,16876.695478,-72779.072310
304.699837,20133.601622,6365.771101,-78601.398095
304.702390,-7846.182985,6513.812290,-77682.083497
304.704943,-6513.812290,10362.883188,-74158.044206
304.707495,7994.224174,12139.377449,-74464.482406
304.710048,296.082377,7550.100608,-76303.111601
304.712601,-2368.659014,9326.594869,-75996.673402
304.715153,-148.041188,15248.242405,-73085.510509
304.717706,-888.247130,14952.160028,-72779.072310
304.720258,-3256.906145,12139.377449,-79520.712692
304.722811,-2960.823768,22650.301825,-75996.673402
304.725364,-1924.535449,20133.601622,-74311.263306
304.727916,9326.594869,10807.006753,-76149.892501
304.730469,-18801.230927,22058.137072,-73238.729609
304.733021,-1184.329507,592.164754,-79367.493593
304.735574,27683.702231,3997.112087,-80593.246390
304.738127,-23982.672521,1776.494261,-75690.235202
304.740679,9474.636058,-6661.853478,-77375.645298
304.743232,2220.617826,-4145.153275,-76609.549800
304.745785,-29164.114115,1332.370696,-72166.195912
304.748337,31236.690752,-4737.318029,-80286.808190
304.750890,-4441.235652,592.164754,-77528.864398
304.753442,-20577.725188,12287.418637,-73391.948708
304.755995,10362.883188,7994.224174,-76609.549800
304.758548,1332.370696,6365.771101,-78601.398095
304.761100,-9030.512492,8882.471304,-76303.111601
304.763653,444.123565,1184.329507,-77375.645298
304.766206,3701.029710,6069.688724,-77988.521696
304.768758,-3997.112087,740.205942,-78448.178995
304.771311,3997.112087,-888.247130,-77222.426198
304.773863,-2220.617826,1184.329507,-73391.948708
304.776416,888.247130,-3108.864956,-75996.673402
304.778975,-13915.871710,-7402.059420,-77528.864398
304.781534,18801.230927,-4589.276840,-81818.999186
304.784094,8290.306550,-5329.482782,-79520.712692
304.786653,-25018.960840,11991.336260,-74617.701505
304.789212,-6513.812290,11695.253884,-73391.948708
304.791771,31236.690752,28423.908173,-74924.139704
304.794330,-38638.750172,31088.649564,-71093.662214
304.796889,26351.331535,20577.725188,-79367.493593
304.799449,7846.182985,23390.507767,-72625.853210
304.802008,-31532.773129,19245.354492,-71553.319513
304.804567,20873.807564,4737.318029,-78754.617194
304.807126,-1332.370696,7105.977043,-78754.617194
304.809685,-9622.677246,10955.047942,-72625.853210
304.812245,-2368.659014,7994.224174,-74004.825107
304.814804,2812.782580,5181.441594,-78294.959896
304.817363,2664.741391,11843.295072,-75230.577904
304.819922,1480.411884,16136.489536,-73545.167808
304.822481,-7254.018232,14804.118840,-72779.072310
304.825040,2220.617826,13915.871710,-79367.493593
304.827600,5329.482782,22798.343014,-76762.768900
304.830159,-19097.313304,21169.889941,-73545.167808
304.832718,15692.365970,12879.583391,-75537.016103
304.835277,3108.864956,24574.837274,-74004.825107
304.837836,-36270.091158,17320.819043,-71553.319513
304.840395,26203.290347,9770.718434,-77835.302597
304.842955,-2812.782580,-4737.318029,-79827.150892
304.845514,-26351.331535,-444.123565,-72012.976812
304.848073,39230.914926,-8734.430116,-78294.959896
304.850632,-29016.072926,-296.082377,-72472.634111
304.853191,-1628.453072,4293.194464,-75843.454302
304.855751,21762.054695,2072.576638,-79673.931792
304.858310,-15100.201217,10955.047942,-74617.701505
304.860869,-12879.583391,10362.883188,-74311.263306
304.863428,10362.883188,3256.906145,-78141.740796
304.865987,1036.288319,6661.853478,-75996.673402
304.868546,-10658.965565,5477.523971,-76915.987999
304.871106,9770.718434,-148.041188,-79980.369991
304.873665,-444.123565,3256.906145,-77682.083497
304.876224,-4145.153275,2812.782580,-73851.606007
304.878783,-1036.288319,-3849.070898,-76303.111601
304.881313,9622.677246,-6365.771101,-76456.330700
304.883843,2220.617826,10362.883188,-75077.358804
304.886373,-15692.365970,1036.288319,-76915.987999
304.888903,-25611.125593,4589.276840,-73851.606007
304.891433,43524.109390,5181.441594,-79520.712692
304.893963,-30644.525999,17172.777854,-71553.319513
304.896493,-1036.288319,19245.354492,-78448.178995
304.899023,16284.530724,15248.242405,-81359.341888
304.901553,-28571.949361,19985.560434,-73698.386908
304.904083,26499.372724,14952.160028,-75843.454302
304.906613,148.041188,13175.665768,-76762.768900
304.909143,-19837.519246,10955.047942,-75690.235202
304.911673,0.000000,10510.924376,-75230.577904
304.914203,6217.729913,4885.359217,-74311.263306
304.916733,-4589.276840,10955.047942,-76915.987999
304.919263,4737.318029,9770.718434,-75537.016103
304.921793,-6957.935855,9918.759623,-75383.797003
304.924323,-1480.411884,14952.160028,-73545.167808
304.926853,5773.606348,16284.530724,-76149.892501
304.929383,-8142.265362,19837.519246,-78294.959896
304.931913,592.164754,20577.725188,-76303.111601
304.934443,12287.418637,13619.789333,-77375.645298
304.936973,-1036.288319,24722.878463,-74158.044206
304.939503,-37602.461854,4885.359217,-74770.920605
304.942033,44708.438897,8142.265362,-79673.931792
304.944563,-35233.802839,3108.864956,-74158.044206
304.947093,9474.636058,-6365.771101,-78754.617194
304.949623,12287.418637,-2072.576638,-76303.111601
304.952153,-39675.038491,296.082377,-72166.195912
304.954683,-2368.659014,1480.411884,-75996.673402
304.957213,21910.095883,1184.329507,-79520.712692
304.959743,-14508.036463,11399.171507,-75843.454302
304.962273,-10658.965565,11251.130318,-74158.044206
304.964803,8438.347739,3701.029710,-77069.207099
304.967333,1184.329507,7105.977043,-77682.083497
304.969863,-8438.347739,7550.100608,-77222.426198
304.972393,7698.141797,-148.041188,-79980.369991
304.974923,-1628.453072,2960.823768,-76149.892501
304.977453,-4589.276840,296.082377,-75383.797003
304.979983,0.000000,-6513.812290,-76149.892501
304.982524,888.247130,-8142.265362,-77222.426198
304.985066,13915.871710,592.164754,-79520.712692
304.987607,9918.759623,-5181.441594,-79367.493593
304.990148,-40415.244433,8438.347739,-71246.881314
304.992689,31384.731941,8438.347739,-78448.178995
304.995230,-6661.853478,22206.178260,-73085.510509
304.997771,-28571.949361,23242.466579,-74158.044206
305.000312,35085.761651,15396.283594,-81512.560987
305.002853,-28868.031738,21169.889941,-72932.291410
305.005394,9178.553681,14952.160028,-76149.892501
305.007935,16136.489536,8734.430116,-77682.083497
305.010476,-12435.459826,8438.347739,-76915.987999
305.013017,-3404.947333,11991.336260,-75077.358804
305.015558,5625.565159,10066.800811,-72932.291410
305.018099,-2220.617826,8290.306550,-75996.673402
305.020640,888.247130,4737.318029,-78601.398095
305.023181,-1628.453072,15248.242405,-72012.976812
305.025722,-3108.864956,17468.860231,-72779.072310
305.028263,2220.617826,15396.283594,-77682.083497
305.030804,4589.276840,21169.889941,-78294.959896
305.033345,-12139.377449,23094.425390,-73391.948708
305.035886,-13175.665768,21762.054695,-71706.538613
305.038427,31532.773129,8438.347739,-79673.931792
305.040968,-14211.954086,8734.430116,-77375.645298
305.043509,5921.647536,8142.265362,-76456.330700
305.046050,12879.583391,-10955.047942,-79827.150892
305.048591,-37750.503042,-4441.235652,-74311.263306
305.051132,37158.338288,-10658.965565,-80286.808190
305.053673,-4885.359217,-4589.276840,-77528.864398
305.056214,-23538.548956,3404.947333,-73085.510509
305.058755,22650.301825,6069.688724,-75843.454302
305.061296,15692.365970,5921.647536,-78907.836294
305.063837,-13027.624579,8142.265362,-73545.167808
305.066378,296.082377,7105.977043,-76303.111601
305.068919,4885.359217,8586.388927,-76303.111601
305.071461,296.082377,5773.606348,-77528.864398
305.074002,-888.247130,1184.329507,-79980.369991
305.076543,-2220.617826,4885.359217,-75383.797003
305.079084,592.164754,-1184.329507,-75843.454302
305.081625,3997.112087,-6661.853478,-75230.577904
305.084175,-17172.777854,6809.894666,-73851.606007
305.086725,-9474.636058,1628.453072,-77682.083497
305.089275,26795.455100,-4589.276840,-80593.246390
305.091825,-6661.853478,13175.665768,-75077.358804
305.094376,-16580.613101,12583.501014,-71706.538613
305.096926,33605.349767,26647.413912,-75690.235202
305.099476,-34197.514520,30348.443622,-70634.004916
305.102026,16284.530724,20725.766376,-78754.617194
305.104577,17468.860231,23538.548956,-73851.606007
305.107127,-32717.102636,22502.260637,-69867.909418
305.109677,-9178.553681,8142.265362,-79214.274493
305.112227,14211.954086,5329.482782,-79061.055394
305.114777,-3404.947333,11695.253884,-74924.139704
305.117328,-1184.329507,10362.883188,-72472.634111
305.119878,-3997.112087,9030.512492,-76609.549800
305.122428,1184.329507,8586.388927,-75996.673402
305.124978,1480.411884,14952.160028,-74004.825107
305.127528,-4737.318029,16728.654289,-72779.072310
305.130079,2664.741391,20873.807564,-78448.178995
305.132629,-148.041188,17764.942608,-76915.987999
305.135179,1332.370696,13619.789333,-74770.920605
305.137729,2072.576638,25315.043216,-73851.606007
305.140279,-26499.372724,8438.347739,-74004.825107
305.142830,29460.196492,5477.523971,-79980.369991
305.145380,-24130.713709,2516.700203,-74158.044206
305.147930,9474.636058,-4145.153275,-77375.645298
305.150480,3108.864956,-3256.906145,-77375.645298
305.153031,-31236.690752,-592.164754,-72779.072310
305.155581,29904.320057,-5329.482782,-77988.521696
305.158131,-1332.370696,2812.782580,-78294.959896
305.160681,-14656.077652,9918.759623,-74770.920605
305.163231,-4441.235652,7994.224174,-75537.016103
305.165782,11991.336260,9326.594869,-76149.892501
305.168332,-6809.894666,6957.935855,-77222.426198
305.170882,-592.164754,4589.276840,-77069.207099
305.173432,3701.029710,3256.906145,-78907.836294
305.175982,-2812.782580,5477.523971,-77069.207099
305.178533,-2368.659014,-2072.576638,-77222.426198
305.181083,4441.235652,-5181.441594,-75690.235202
305.183633,-19393.395680,2516.700203,-72779.072310
305.186157,-444.123565,-2960.823768,-80746.465489
305.188681,29904.320057,-8734.430116,-81359.341888
305.191204,-33753.390955,16876.695478,-72012.976812
305.193728,6809.894666,10658.965565,-74770.920605
305.196252,18357.107362,23982.672521,-75230.577904
305.198776,-33605.349767,30348.443622,-70940.443115
305.201300,29460.196492,18209.066173,-79520.712692
305.203823,-9918.759623,21762.054695,-73545.167808
305.206347,-15248.242405,19245.354492,-70634.004916
305.208871,9178.553681,4885.359217,-78907.836294
305.211395,5329.482782,9622.677246,-77069.207099
305.213918,-7254.018232,16136.489536,-71859.757712
305.216442,0.000000,8734.430116,-74004.825107
305.218966,-444.123565,7402.059420,-77069.207099
305.221490,2516.700203,7402.059420,-77988.521696
305.224014,-2220.617826,16284.530724,-72472.634111
305.226537,-2072.576638,17024.736666,-72932.291410
305.229061,5033.400406,19985.560434,-77528.864398
305.231585,-5329.482782,19541.436869,-76149.892501
305.234109,3701.029710,17172.777854,-73851.606007
305.236632,4589.276840,25018.960840,-74004.825107
305.239156,-31976.896694,7994.224174,-74004.825107
305.241680,35825.967593,5625.565159,-79980.369991
305.244204,-25315.043216,1332.370696,-74464.482406
305.246728,7550.100608,-4441.235652,-77682.083497
305.249251,2960.823768,-3256.906145,-77682.083497
305.251775,-28423.908173,-2516.700203,-74617.701505
305.254299,29164.114115,-4737.318029,-77528.864398
305.256823,16876.695478,4589.276840,-77528.864398
305.259346,-14359.995275,9178.553681,-75843.454302
305.261870,-2368.659014,5921.647536,-76915.987999
305.264394,10510.924376,5329.482782,-78601.398095
305.266918,-3552.988522,8290.306550,-75230.577904
305.269442,-4589.276840,8438.347739,-76149.892501
305.271965,5625.565159,1184.329507,-79980.369991
305.274489,1036.288319,2960.823768,-77835.302597
305.277013,-5329.482782,1184.329507,-74617.701505
305.279537,10066.800811,-5773.606348,-76456.330700
305.282060,-7846.182985,5477.523971,-74311.263306
305.284584,-19393.395680,1924.535449,-76915.987999
305.287086,27535.661042,-6069.688724,-80899.684589
305.289590,2220.617826,12879.583391,-75230.577904
305.292093,-22650.301825,14063.912898,-69714.690318
305.294597,29608.237680,25759.166782,-75690.235202
305.297101,-27831.743419,27239.578666,-71859.757712
305.299604,12139.377449,21021.848753,-76762.768900
305.302108,13323.706956,22354.219448,-74770.920605
305.304611,-23094.425390,17764.942608,-71859.757712
305.307115,-6365.771101,3997.112087,-79520.712692
305.309618,11991.336260,7994.224174,-78294.959896
305.312122,-7105.977043,7846.182985,-75383.797003
305.314625,296.082377,11103.089130,-73851.606007
305.317129,3108.864956,6957.935855,-76609.549800
305.319632,-3849.070898,9178.553681,-75537.016103
305.322136,148.041188,15396.283594,-73851.606007
305.324639,-1184.329507,19689.478057,-72779.072310
305.327143,7994.224174,20429.683999,-77375.645298
305.329646,-5477.523971,15396.283594,-76915.987999
305.332150,-16136.489536,24278.754898,-70327.566716
305.334653,34049.473332,15692.365970,-76915.987999
305.337157,-21762.054695,10955.047942,-75690.235202
305.339660,11399.171507,6217.729913,-77375.645298
305.342164,8290.306550,-7846.182985,-80133.589091
305.344668,-30644.525999,-2516.700203,-72779.072310
305.347171,37454.420665,-9474.636058,-81512.560987
305.349675,-16432.571912,-4589.276840,-75996.673402
305.352178,-12139.377449,3404.947333,-73851.606007
305.354682,5329.482782,10362.883188,-75537.016103
305.357185,8290.306550,3404.947333,-79827.150892
305.359689,-7698.141797,5625.565159,-75383.797003
305.362192,-444.123565,9178.553681,-75537.016103
305.364696,3997.112087,4885.359217,-76456.330700
305.367199,2516.700203,5033.400406,-79980.369991
305.369703,-1184.329507,2664.741391,-78448.178995
305.372206,-4737.318029,1332.370696,-75843.454302
305.374710,7846.182985,-6513.812290,-77222.426198
305.377213,-12435.459826,-9474.636058,-77222.426198
305.379717,11695.253884,-2664.741391,-79214.274493
305.382220,28423.908173,-8290.306550,-80746.465489
305.384724,-29904.320057,12583.501014,-72472.634111
305.387245,6069.688724,10807.006753,-75383.797003
305.389766,20281.642811,25759.166782,-74158.044206
305.392287,-33457.308578,29904.320057,-70940.443115
305.394808,29164.114115,16580.613101,-79520.712692
305.397329,-9178.553681,21021.848753,-74158.044206
305.399850,-15988.448347,19541.436869,-73698.386908
305.402371,18357.107362,2368.659014,-80133.589091
305.404892,-9326.594869,8734.430116,-77528.864398
305.407413,-5477.523971,10807.006753,-74924.139704
305.409934,1332.370696,9622.677246,-74004.825107
305.412455,-1776.494261,10214.842000,-75383.797003
305.414976,592.164754,9178.553681,-76303.111601
305.417497,-2368.659014,15248.242405,-73851.606007
305.420018,-4589.276840,16876.695478,-73545.167808
305.422539,12731.542202,20429.683999,-77069.207099
305.425060,-9918.759623,19837.519246,-75843.454302
305.427581,-3701.029710,16432.571912,-74770.920605
305.430102,35677.926404,13175.665768,-77069.207099
305.432623,-18801.230927,10362.883188,-77222.426198
305.435144,6217.729913,7105.977043,-76456.330700
305.437665,9622.677246,-7698.141797,-79673.931792
305.440186,-30792.567187,-1184.329507,-71706.538613
305.442707,34789.679274,-8586.388927,-81512.560987
305.445228,-15692.365970,-3552.988522,-75383.797003
305.447749,-9326.594869,3256.906145,-73391.948708
305.450270,18357.107362,5329.482782,-77682.083497
305.452791,-7550.100608,7105.977043,-76303.111601
305.455312,-10066.800811,9622.677246,-75077.358804
305.457833,3552.988522,4737.318029,-75690.235202
305.460354,2072.576638,6069.688724,-76915.987999
305.462875,-7254.018232,7846.182985,-77375.645298
305.465396,3849.070898,444.123565,-78754.617194
305.467917,2072.576638,1480.411884,-76303.111601
305.470438,148.041188,-888.247130,-74311.263306
305.472959,-4589.276840,-11843.295072,-77835.302597
305.475480,16876.695478,-2664.741391,-79520.712692
305.478002,-14211.954086,296.082377,-77222.426198
305.480523,-37306.379477,12287.418637,-72779.072310
305.483044,18653.189738,8290.306550,-76915.987999
305.485565,12879.583391,25018.960840,-74311.263306
305.488100,-34789.679274,28423.908173,-71093.662214
305.490636,30644.525999,15544.324782,-79980.369991
305.493172,-17172.777854,22502.260637,-72932.291410
305.495707,-7550.100608,18061.024985,-74617.701505
305.498243,18653.189738,4737.318029,-79980.369991
305.500778,-13767.830521,11843.295072,-75230.577904
305.503314,-444.123565,12583.501014,-76609.549800
305.505850,296.082377,5921.647536,-75690.235202
305.508385,-2812.782580,7550.100608,-75383.797003
305.510921,3997.112087,11399.171507,-77222.426198
305.513457,-6661.853478,14804.118840,-73391.948708
305.515992,-4885.359217,17172.777854,-73085.510509
305.518528,21910.095883,21465.972318,-76762.768900
305.521064,-18357.107362,16432.571912,-75537.016103
305.523599,-10955.047942,21169.889941,-72779.072310
305.526135,38194.626607,20873.807564,-75690.235202
305.528671,-6069.688724,6365.771101,-78294.959896
305.531206,-8734.430116,2664.741391,-77069.207099
305.533742,24426.796086,-13027.624579,-80899.684589
305.536278,-38786.791361,-1924.535449,-72932.291410
305.538813,25907.207970,-11103.089130,-82585.094684
305.541349,6513.812290,-7846.182985,-78294.959896
305.543885,-21910.095883,3552.988522,-71246.881314
305.546420,13175.665768,6661.853478,-76456.330700
305.548956,1924.535449,4589.276840,-77682.083497
305.551491,-7550.100608,8586.388927,-75230.577904
305.554027,-2220.617826,9918.759623,-74770.920605
305.556563,1628.453072,6217.729913,-77682.083497
305.559098,-740.205942,1924.535449,-80593.246390
305.561634,-1332.370696,2812.782580,-78294.959896
305.564170,0.000000,2220.617826,-75077.358804
305.566705,13323.706956,-6513.812290,-77988.521696
305.569241,-23538.548956,-444.123565,-74924.139704
305.571777,-3997.112087,-2812.782580,-79520.712692
305.574312,27683.702231,-8586.388927,-80593.246390
305.576848,-31384.731941,15988.448347,-71859.757712
305.579384,-29608.237680,15840.407159,-69255.033019
305.581919,35529.885216,23094.425390,-76149.892501
305.584455,-23834.631332,27535.661042,-73238.729609
305.586991,2664.741391,20725.766376,-74924.139704
305.589538,16580.613101,19985.560434,-74311.263306
305.592086,-21910.095883,20577.725188,-72472.634111
305.594633,6069.688724,6513.812290,-79673.931792
305.597180,3849.070898,8142.265362,-78294.959896
305.599728,-4885.359217,9326.594869,-75230.577904
305.602275,1924.535449,9918.759623,-74158.044206
305.604823,-740.205942,8438.347739,-75230.577904
305.607370,-296.082377,14063.912898,-74924.139704
305.609918,-2664.741391,16728.654289,-74311.263306
305.612465,3701.029710,25018.960840,-72472.634111
305.615013,1036.288319,19985.560434,-75843.454302
305.617560,4737.318029,8290.306550,-79061.055394
305.620107,-20429.683999,24574.837274,-72166.195912
305.622655,-10066.800811,4589.276840,-77835.302597
305.625202,30792.567187,888.247130,-82738.313784
305.627750,-21762.054695,-2072.576638,-76456.330700
305.630297,9770.718434,-2220.617826,-77528.864398
305.632845,1480.411884,-1924.535449,-76149.892501
305.635392,-26647.413912,-3256.906145,-75537.016103
305.637940,26055.249158,-5921.647536,-79367.493593
305.640487,-1184.329507,5033.400406,-74158.044206
305.643035,-11991.336260,10214.842000,-73085.510509
305.645582,444.123565,4885.359217,-78141.740796
305.648129,7402.059420,6217.729913,-77222.426198
305.650677,-3701.029710,7698.141797,-76456.330700
305.653224,-8438.347739,8438.347739,-76915.987999
305.655772,-740.205942,888.247130,-79367.493593
305.658319,3849.070898,-1776.494261,-79061.055394
305.660867,1776.494261,-3849.070898,-76149.892501
305.663414,-6513.812290,-8290.306550,-76609.549800
305.665962,17172.777854,-5329.482782,-80593.246390
305.668509,-11991.336260,-1924.535449,-76915.987999
305.671056,-34641.638086,8290.306550,-70940.443115
305.673604,47965.345042,4145.153275,-78754.617194
305.676151,-19393.395680,24130.713709,-74617.701505
305.678699,-31828.855506,28127.825796,-72012.976812
305.681246,26351.331535,15692.365970,-79214.274493
305.683794,-14656.077652,20725.766376,-73391.948708
305.686341,-6217.729913,18061.024985,-74464.482406
305.688889,9918.759623,5181.441594,-79061.055394
305.691413,-10658.965565,9326.594869,-77835.302597
305.693937,3701.029710,11103.089130,-77069.207099
305.696461,1924.535449,6661.853478,-74770.920605
305.698986,592.164754,11695.253884,-74004.825107
305.701510,2664.741391,11399.171507,-76609.549800
305.704034,-5033.400406,17172.777854,-73698.386908
305.706558,-2072.576638,22354.219448,-73698.386908
305.709082,13767.830521,17912.983796,-76149.892501
305.711607,2664.741391,12879.583391,-78448.178995
305.714131,-26943.496289,20429.683999,-72012.976812
305.716655,15840.407159,5625.565159,-78754.617194
305.719179,8438.347739,3552.988522,-79980.369991
305.721704,-12879.583391,444.123565,-78294.959896
305.724228,23686.590144,-13323.706956,-79827.150892
305.726752,-18949.272115,-1036.288319,-77222.426198
305.729276,-14359.995275,-6069.688724,-79673.931792
305.731800,33901.432144,-9770.718434,-81052.903688
305.734325,-15396.283594,5181.441594,-72319.415011
305.736849,-10807.006753,10658.965565,-74464.482406
305.739373,8142.265362,2368.659014,-78907.836294
305.741897,3256.906145,7846.182985,-78294.959896
305.744422,-7254.018232,7254.018232,-75383.797003
305.746946,-2072.576638,4441.235652,-76762.768900
305.749470,3997.112087,1924.535449,-79980.369991
305.751994,6513.812290,-296.082377,-78141.740796
305.754518,740.205942,-740.205942,-75230.577904
305.757043,-2516.700203,-9918.759623,-76303.111601
305.759567,17468.860231,592.164754,-79827.150892
305.762091,-16284.530724,-1628.453072,-75996.673402
305.764615,-31532.773129,8586.388927,-71706.538613
305.767140,46929.056723,8438.347739,-77682.083497
305.769664,-20577.725188,18949.272115,-72779.072310
305.772188,-10066.800811,20429.683999,-76149.892501
305.774712,31236.690752,16728.654289,-78907.836294
305.777237,-18653.189738,21762.054695,-72166.195912
305.779761,-23094.425390,18949.272115,-72319.415011
305.782285,12731.542202,3849.070898,-80133.589091
305.784809,2516.700203,10066.800811,-77682.083497
305.787333,-3997.112087,14656.077652,-73545.167808
305.789858,-1628.453072,7402.059420,-74617.701505
305.792396,-2516.700203,8290.306550,-75996.673402
305.794935,2516.700203,11991.336260,-76762.768900
305.797474,-5181.441594,18653.189738,-73545.167808
305.800013,2812.782580,21910.095883,-73085.510509
305.802551,-1924.535449,18061.024985,-76456.330700
305.805090,4589.276840,15248.242405,-76762.768900
305.807629,0.000000,24574.837274,-73391.948708
305.810168,-30792.567187,12435.459826,-72166.195912
305.812706,36566.173535,5329.482782,-79520.712692
305.815245,-25167.002028,-3997.112087,-76609.549800
305.817784,12879.583391,-2812.782580,-76915.987999
305.820323,0.000000,444.123565,-77375.645298
305.822861,-30792.567187,-4441.235652,-76456.330700
305.825400,5329.482782,-1184.329507,-77375.645298
305.827939,20429.683999,6217.729913,-75996.673402
305.830478,-11547.212695,8290.306550,-73545.167808
305.833016,-3404.947333,5477.523971,-77835.302597
305.835555,5625.565159,9030.512492,-76149.892501
305.838094,1332.370696,6661.853478,-75996.673402
305.840633,-3849.070898,2516.700203,-77835.302597
305.843171,-4885.359217,-444.123565,-78294.959896
305.845710,5773.606348,740.205942,-76456.330700
305.848249,9474.636058,-5773.606348,-76456.330700
305.850788,-3701.029710,3552.988522,-76149.892501
305.853326,-22502.260637,2960.823768,-76456.330700
305.855865,8438.347739,-5625.565159,-79827.150892
305.858404,18801.230927,10214.842000,-76303.111601
305.860943,-26499.372724,16728.654289,-69561.471218
305.863481,25167.002028,25463.084405,-75690.235202
305.866020,-19245.354492,24278.754898,-74158.044206
305.868559,6661.853478,20873.807564,-74770.920605
305.871098,10066.800811,17616.901420,-74770.920605
305.873636,-17172.777854,12731.542202,-75077.358804
305.876175,-2516.700203,6217.729913,-79061.055394
305.878714,8438.347739,10658.965565,-77988.521696
305.881252,-4145.153275,11843.295072,-73545.167808
305.883791,-2368.659014,9474.636058,-75383.797003
305.886330,-740.205942,6957.935855,-77222.426198
305.888869,-2960.823768,14656.077652,-74617.701505
305.891407,-7698.141797,21169.889941,-73238.729609
305.893957,17024.736666,19985.560434,-75690.235202
305.896507,1628.453072,17764.942608,-76762.768900
305.899057,-29904.320057,23242.466579,-72319.415011
305.901607,17616.901420,7105.977043,-77835.302597
305.904157,8142.265362,5921.647536,-78448.178995
305.906707,-14211.954086,1924.535449,-76149.892501
305.909257,20281.642811,-14952.160028,-80899.684589
305.911807,-30496.484810,-2072.576638,-73698.386908
305.914357,26499.372724,-7402.059420,-80899.684589
305.916907,-592.164754,-6809.894666,-78601.398095
305.919457,-21317.931130,1776.494261,-73698.386908
305.922007,13915.871710,8438.347739,-75230.577904
305.924557,11103.089130,2516.700203,-78907.836294
305.927107,-2960.823768,9178.553681,-76456.330700
305.929657,-3701.029710,7105.977043,-74924.139704
305.932207,-148.041188,7550.100608,-75843.454302
305.934756,-444.123565,1332.370696,-79367.493593
305.937306,-1776.494261,-2072.576638,-78907.836294
305.939856,5921.647536,-1924.535449,-75077.358804
305.942406,-5033.400406,-4589.276840,-74924.139704
305.944956,12583.501014,-2516.700203,-80286.808190
305.947506,-5329.482782,-3108.864956,-77988.521696
305.950056,-33161.226202,14656.077652,-71553.319513
305.952606,9622.677246,14359.995275,-73851.606007
305.955156,17172.777854,25907.207970,-75077.358804
305.957706,-29756.278868,26647.413912,-72472.634111
305.960256,28868.031738,16580.613101,-78448.178995
305.962806,-17468.860231,18357.107362,-72932.291410
305.965356,-2812.782580,17024.736666,-75537.016103
305.967906,14656.077652,5773.606348,-79827.150892
305.970456,-17912.983796,10658.965565,-75690.235202
305.973006,3108.864956,14063.912898,-76456.330700
305.975555,6365.771101,9030.512492,-74924.139704
305.978105,-2960.823768,5329.482782,-76303.111601
305.980655,-1776.494261,13471.748144,-76915.987999
305.983205,-8142.265362,21614.013506,-72779.072310
305.985755,14359.995275,19837.519246,-74924.139704
305.988305,-1480.411884,17468.860231,-75843.454302
305.990855,-7105.977043,22354.219448,-73085.510509
305.993405,22798.343014,22354.219448,-75843.454302
305.995964,-40711.326810,15544.324782,-70327.566716
305.998524,4885.359217,7105.977043,-76915.987999
306.001083,9030.512492,-13175.665768,-81665.780087
306.003642,-27979.784608,-4589.276840,-73545.167808
306.006201,32865.143825,-2220.617826,-79673.931792
306.008761,-23686.590144,-3108.864956,-76456.330700
306.011320,-3108.864956,-1332.370696,-75077.358804
306.013879,19393.395680,10214.842000,-75843.454302
306.016438,-10362.883188,8734.430116,-74311.263306
306.018998,-6069.688724,5477.523971,-76456.330700
306.021557,5773.606348,9178.553681,-76762.768900
306.024116,1776.494261,9770.718434,-75843.454302
306.026675,-2368.659014,1480.411884,-78907.836294
306.029235,-2664.741391,-2960.823768,-78601.398095
306.031794,10066.800811,-2960.823768,-75230.577904
306.034353,-7698.141797,-5477.523971,-74924.139704
306.036913,5477.523971,-2812.782580,-79367.493593
306.039472,2072.576638,-6069.688724,-80440.027290
306.042031,-37306.379477,8882.471304,-71706.538613
306.044590,37898.544230,9030.512492,-77835.302597
306.047150,-11251.130318,22650.301825,-72932.291410
306.049709,-27239.578666,28868.031738,-72932.291410
306.052268,24278.754898,16432.571912,-77835.302597
306.054827,-14211.954086,20133.601622,-71706.538613
306.057387,-3256.906145,18357.107362,-73391.948708
306.059946,11547.212695,4885.359217,-79673.931792
306.062505,-10807.006753,8882.471304,-76609.549800
306.065064,-1036.288319,11251.130318,-77222.426198
306.067624,3404.947333,6809.894666,-74464.482406
306.070183,2516.700203,12435.459826,-75230.577904
306.072742,-4885.359217,11251.130318,-74770.920605
306.075302,-7994.224174,19097.313304,-73545.167808
306.077836,17320.819043,22058.137072,-75996.673402
306.080371,-296.082377,18209.066173,-75537.016103
306.082906,-18505.148550,20873.807564,-72779.072310
306.085441,33605.349767,18801.230927,-75690.235202
306.087976,-34789.679274,17320.819043,-71246.881314
306.090511,17764.942608,7105.977043,-76609.549800
306.093046,4737.318029,-11251.130318,-81359.341888
306.095581,-20133.601622,-1924.535449,-73698.386908
